:Data_list: 20020426_ace_sis_5m.txt
:Created: 2002 Apr 27 0011 UT
# Prepared by the U.S. Dept. of Commerce, NOAA, Space Environment Center.
# Please send comments and suggestions to sec@sec.noaa.gov 
# 
# Units: proton flux p/cs2-sec-ster
# Status(S): 0 = nominal data, 1 to 8 = bad data record, 9 = no data
# Missing data values: -1.00e+05
# Source: ACE Satellite - Solar Isotope Spectrometer
#
# 5-minute averaged Real-time Integral Flux of High-energy Solar Protons
# 
#                 Modified Seconds
# UT Date   Time   Julian  of the      ---- Integral Proton Flux ----
# YR MO DA  HHMM     Day     Day       S    > 10 MeV    S    > 30 MeV
#--------------------------------------------------------------------
2002 04 26  0000    52390       0      0    1.09e+01    0    2.20e+00
2002 04 26  0005    52390     300      0    1.09e+01    0    2.23e+00
2002 04 26  0010    52390     600      0    1.09e+01    0    2.13e+00
2002 04 26  0015    52390     900      9   -1.00e+05    9   -1.00e+05
2002 04 26  0020    52390    1200      0    1.40e+01    0    1.89e+00
2002 04 26  0025    52390    1500      0    1.07e+01    0    2.12e+00
2002 04 26  0030    52390    1800      0    1.06e+01    0    2.13e+00
2002 04 26  0035    52390    2100      0    1.07e+01    0    2.14e+00
2002 04 26  0040    52390    2400      0    1.06e+01    0    2.12e+00
2002 04 26  0045    52390    2700      0    1.06e+01    0    2.14e+00
2002 04 26  0050    52390    3000      0    1.05e+01    0    2.12e+00
2002 04 26  0055    52390    3300      0    1.07e+01    0    2.16e+00
2002 04 26  0100    52390    3600      0    1.07e+01    0    2.14e+00
2002 04 26  0105    52390    3900      0    1.06e+01    0    2.16e+00
2002 04 26  0110    52390    4200      0    1.06e+01    0    2.19e+00
2002 04 26  0115    52390    4500      0    1.06e+01    0    2.13e+00
2002 04 26  0120    52390    4800      0    1.05e+01    0    2.06e+00
2002 04 26  0125    52390    5100      0    1.07e+01    0    2.17e+00
2002 04 26  0130    52390    5400      0    1.07e+01    0    2.04e+00
2002 04 26  0135    52390    5700      0    1.05e+01    0    2.10e+00
2002 04 26  0140    52390    6000      0    1.07e+01    0    2.13e+00
2002 04 26  0145    52390    6300      0    1.10e+01    0    2.22e+00
2002 04 26  0150    52390    6600      0    1.06e+01    0    2.08e+00
2002 04 26  0155    52390    6900      0    1.05e+01    0    2.10e+00
2002 04 26  0200    52390    7200      0    1.06e+01    0    2.06e+00
2002 04 26  0205    52390    7500      0    1.05e+01    0    2.09e+00
2002 04 26  0210    52390    7800      0    1.05e+01    0    2.08e+00
2002 04 26  0215    52390    8100      0    1.05e+01    0    2.08e+00
2002 04 26  0220    52390    8400      0    1.04e+01    0    2.11e+00
2002 04 26  0225    52390    8700      0    1.04e+01    0    2.08e+00
2002 04 26  0230    52390    9000      0    1.03e+01    0    2.04e+00
2002 04 26  0235    52390    9300      0    1.03e+01    0    2.06e+00
2002 04 26  0240    52390    9600      0    1.05e+01    0    2.07e+00
2002 04 26  0245    52390    9900      0    1.08e+01    0    2.16e+00
2002 04 26  0250    52390   10200      0    1.04e+01    0    2.04e+00
2002 04 26  0255    52390   10500      0    1.03e+01    0    2.03e+00
2002 04 26  0300    52390   10800      0    1.02e+01    0    2.03e+00
2002 04 26  0305    52390   11100      0    1.02e+01    0    2.03e+00
2002 04 26  0310    52390   11400      0    1.02e+01    0    1.98e+00
2002 04 26  0315    52390   11700      0    1.05e+01    0    2.09e+00
2002 04 26  0320    52390   12000      0    1.05e+01    0    2.09e+00
2002 04 26  0325    52390   12300      0    1.05e+01    0    2.09e+00
2002 04 26  0330    52390   12600      0    1.04e+01    0    2.05e+00
2002 04 26  0335    52390   12900      0    1.04e+01    0    2.02e+00
2002 04 26  0340    52390   13200      0    1.03e+01    0    2.01e+00
2002 04 26  0345    52390   13500      0    1.03e+01    0    2.01e+00
2002 04 26  0350    52390   13800      0    1.07e+01    0    2.13e+00
2002 04 26  0355    52390   14100      0    1.04e+01    0    2.06e+00
2002 04 26  0400    52390   14400      0    1.03e+01    0    2.03e+00
2002 04 26  0405    52390   14700      0    1.03e+01    0    2.00e+00
2002 04 26  0410    52390   15000      0    1.03e+01    0    2.01e+00
2002 04 26  0415    52390   15300      0    1.03e+01    0    2.08e+00
2002 04 26  0420    52390   15600      0    1.06e+01    0    2.08e+00
2002 04 26  0425    52390   15900      0    1.03e+01    0    2.03e+00
2002 04 26  0430    52390   16200      0    1.03e+01    0    1.97e+00
2002 04 26  0435    52390   16500      0    1.01e+01    0    2.00e+00
2002 04 26  0440    52390   16800      0    1.01e+01    0    1.99e+00
2002 04 26  0445    52390   17100      0    1.02e+01    0    2.03e+00
2002 04 26  0450    52390   17400      0    1.04e+01    0    2.01e+00
2002 04 26  0455    52390   17700      0    1.03e+01    0    2.02e+00
2002 04 26  0500    52390   18000      0    1.00e+01    0    1.95e+00
2002 04 26  0505    52390   18300      0    1.00e+01    0    1.98e+00
2002 04 26  0510    52390   18600      0    9.88e+00    0    1.94e+00
2002 04 26  0515    52390   18900      0    9.95e+00    0    1.92e+00
2002 04 26  0520    52390   19200      0    9.87e+00    0    1.96e+00
2002 04 26  0525    52390   19500      0    1.01e+01    0    1.98e+00
2002 04 26  0530    52390   19800      0    9.98e+00    0    1.96e+00
2002 04 26  0535    52390   20100      0    1.01e+01    0    2.01e+00
2002 04 26  0540    52390   20400      0    1.00e+01    0    1.99e+00
2002 04 26  0545    52390   20700      0    9.97e+00    0    1.95e+00
2002 04 26  0550    52390   21000      0    1.01e+01    0    2.01e+00
2002 04 26  0555    52390   21300      0    1.00e+01    0    1.98e+00
2002 04 26  0600    52390   21600      0    9.88e+00    0    1.96e+00
2002 04 26  0605    52390   21900      0    9.90e+00    0    1.91e+00
2002 04 26  0610    52390   22200      0    9.98e+00    0    1.97e+00
2002 04 26  0615    52390   22500      0    1.00e+01    0    1.98e+00
2002 04 26  0620    52390   22800      0    1.00e+01    0    1.97e+00
2002 04 26  0625    52390   23100      0    9.82e+00    0    1.97e+00
2002 04 26  0630    52390   23400      0    9.82e+00    0    1.92e+00
2002 04 26  0635    52390   23700      0    9.75e+00    0    1.87e+00
2002 04 26  0640    52390   24000      0    9.95e+00    0    1.93e+00
2002 04 26  0645    52390   24300      0    9.96e+00    0    1.99e+00
2002 04 26  0650    52390   24600      0    9.67e+00    0    1.92e+00
2002 04 26  0655    52390   24900      0    9.60e+00    0    1.92e+00
2002 04 26  0700    52390   25200      0    9.64e+00    0    1.92e+00
2002 04 26  0705    52390   25500      0    9.56e+00    0    1.90e+00
2002 04 26  0710    52390   25800      0    9.69e+00    0    1.88e+00
2002 04 26  0715    52390   26100      0    9.69e+00    0    1.90e+00
2002 04 26  0720    52390   26400      0    9.61e+00    0    1.88e+00
2002 04 26  0725    52390   26700      0    9.44e+00    0    1.84e+00
2002 04 26  0730    52390   27000      0    9.61e+00    0    1.91e+00
2002 04 26  0735    52390   27300      0    9.46e+00    0    1.87e+00
2002 04 26  0740    52390   27600      0    9.33e+00    0    1.86e+00
2002 04 26  0745    52390   27900      0    9.41e+00    0    1.85e+00
2002 04 26  0750    52390   28200      0    9.69e+00    0    1.99e+00
2002 04 26  0755    52390   28500      0    9.58e+00    0    1.88e+00
2002 04 26  0800    52390   28800      0    9.68e+00    0    1.90e+00
2002 04 26  0805    52390   29100      0    9.53e+00    0    1.93e+00
2002 04 26  0810    52390   29400      0    9.42e+00    0    1.88e+00
2002 04 26  0815    52390   29700      0    9.28e+00    0    1.76e+00
2002 04 26  0820    52390   30000      0    9.24e+00    0    1.84e+00
2002 04 26  0825    52390   30300      0    9.49e+00    0    1.92e+00
2002 04 26  0830    52390   30600      0    9.49e+00    0    1.90e+00
2002 04 26  0835    52390   30900      0    9.48e+00    0    1.87e+00
2002 04 26  0840    52390   31200      0    9.52e+00    0    1.89e+00
2002 04 26  0845    52390   31500      0    9.34e+00    0    1.81e+00
2002 04 26  0850    52390   31800      0    9.39e+00    0    1.88e+00
2002 04 26  0855    52390   32100      0    9.13e+00    0    1.87e+00
2002 04 26  0900    52390   32400      0    8.96e+00    0    1.81e+00
2002 04 26  0905    52390   32700      0    8.77e+00    0    1.71e+00
2002 04 26  0910    52390   33000      0    8.36e+00    0    1.68e+00
2002 04 26  0915    52390   33300      0    8.96e+00    0    1.80e+00
2002 04 26  0920    52390   33600      0    8.60e+00    0    1.79e+00
2002 04 26  0925    52390   33900      0    8.13e+00    0    1.70e+00
2002 04 26  0930    52390   34200      0    8.09e+00    0    1.72e+00
2002 04 26  0935    52390   34500      0    8.20e+00    0    1.70e+00
2002 04 26  0940    52390   34800      0    8.21e+00    0    1.77e+00
2002 04 26  0945    52390   35100      0    7.99e+00    0    1.77e+00
2002 04 26  0950    52390   35400      0    8.10e+00    0    1.75e+00
2002 04 26  0955    52390   35700      0    8.17e+00    0    1.69e+00
2002 04 26  1000    52390   36000      0    8.13e+00    0    1.74e+00
2002 04 26  1005    52390   36300      0    7.97e+00    0    1.69e+00
2002 04 26  1010    52390   36600      0    8.03e+00    0    1.71e+00
2002 04 26  1015    52390   36900      0    8.11e+00    0    1.75e+00
2002 04 26  1020    52390   37200      0    8.04e+00    0    1.69e+00
2002 04 26  1025    52390   37500      0    7.94e+00    0    1.70e+00
2002 04 26  1030    52390   37800      0    8.12e+00    0    1.73e+00
2002 04 26  1035    52390   38100      0    8.26e+00    0    1.72e+00
2002 04 26  1040    52390   38400      0    7.92e+00    0    1.68e+00
2002 04 26  1045    52390   38700      0    7.51e+00    0    1.66e+00
2002 04 26  1050    52390   39000      0    7.60e+00    0    1.68e+00
2002 04 26  1055    52390   39300      0    7.58e+00    0    1.69e+00
2002 04 26  1100    52390   39600      0    7.66e+00    0    1.71e+00
2002 04 26  1105    52390   39900      0    7.62e+00    0    1.71e+00
2002 04 26  1110    52390   40200      0    7.70e+00    0    1.72e+00
2002 04 26  1115    52390   40500      0    7.79e+00    0    1.69e+00
2002 04 26  1120    52390   40800      0    7.59e+00    0    1.65e+00
2002 04 26  1125    52390   41100      0    7.64e+00    0    1.70e+00
2002 04 26  1130    52390   41400      0    7.56e+00    0    1.67e+00
2002 04 26  1135    52390   41700      0    7.44e+00    0    1.64e+00
2002 04 26  1140    52390   42000      0    7.59e+00    0    1.71e+00
2002 04 26  1145    52390   42300      0    7.66e+00    0    1.70e+00
2002 04 26  1150    52390   42600      0    7.65e+00    0    1.67e+00
2002 04 26  1155    52390   42900      0    7.62e+00    0    1.69e+00
2002 04 26  1200    52390   43200      0    7.56e+00    0    1.66e+00
2002 04 26  1205    52390   43500      0    7.64e+00    0    1.66e+00
2002 04 26  1210    52390   43800      0    7.62e+00    0    1.64e+00
2002 04 26  1215    52390   44100      0    7.50e+00    0    1.67e+00
2002 04 26  1220    52390   44400      0    7.47e+00    0    1.67e+00
2002 04 26  1225    52390   44700      0    7.38e+00    0    1.70e+00
2002 04 26  1230    52390   45000      0    7.38e+00    0    1.66e+00
2002 04 26  1235    52390   45300      0    7.54e+00    0    1.72e+00
2002 04 26  1240    52390   45600      0    7.35e+00    0    1.62e+00
2002 04 26  1245    52390   45900      0    7.40e+00    0    1.62e+00
2002 04 26  1250    52390   46200      0    7.36e+00    0    1.62e+00
2002 04 26  1255    52390   46500      0    7.27e+00    0    1.64e+00
2002 04 26  1300    52390   46800      0    7.26e+00    0    1.62e+00
2002 04 26  1305    52390   47100      0    7.21e+00    0    1.61e+00
2002 04 26  1310    52390   47400      0    7.28e+00    0    1.61e+00
2002 04 26  1315    52390   47700      0    7.29e+00    0    1.59e+00
2002 04 26  1320    52390   48000      0    7.40e+00    0    1.67e+00
2002 04 26  1325    52390   48300      0    7.47e+00    0    1.67e+00
2002 04 26  1330    52390   48600      0    7.45e+00    0    1.65e+00
2002 04 26  1335    52390   48900      0    7.34e+00    0    1.61e+00
2002 04 26  1340    52390   49200      0    7.22e+00    0    1.61e+00
2002 04 26  1345    52390   49500      0    7.11e+00    0    1.57e+00
2002 04 26  1350    52390   49800      0    7.31e+00    0    1.62e+00
2002 04 26  1355    52390   50100      0    7.38e+00    0    1.60e+00
2002 04 26  1400    52390   50400      0    7.60e+00    0    1.64e+00
2002 04 26  1405    52390   50700      0    7.50e+00    0    1.60e+00
2002 04 26  1410    52390   51000      0    7.59e+00    0    1.61e+00
2002 04 26  1415    52390   51300      0    7.75e+00    0    1.68e+00
2002 04 26  1420    52390   51600      0    7.66e+00    0    1.65e+00
2002 04 26  1425    52390   51900      0    7.51e+00    0    1.58e+00
2002 04 26  1430    52390   52200      0    7.58e+00    0    1.61e+00
2002 04 26  1435    52390   52500      0    7.66e+00    0    1.66e+00
2002 04 26  1440    52390   52800      0    7.69e+00    0    1.62e+00
2002 04 26  1445    52390   53100      0    7.58e+00    0    1.64e+00
2002 04 26  1450    52390   53400      0    7.58e+00    0    1.63e+00
2002 04 26  1455    52390   53700      0    7.61e+00    0    1.66e+00
2002 04 26  1500    52390   54000      0    7.56e+00    0    1.58e+00
2002 04 26  1505    52390   54300      9   -1.00e+05    9   -1.00e+05
2002 04 26  1510    52390   54600      9   -1.00e+05    9   -1.00e+05
2002 04 26  1515    52390   54900      0    7.44e+00    0    1.56e+00
2002 04 26  1520    52390   55200      0    7.38e+00    0    1.55e+00
2002 04 26  1525    52390   55500      0    7.38e+00    0    1.53e+00
2002 04 26  1530    52390   55800      0    7.40e+00    0    1.56e+00
2002 04 26  1535    52390   56100      0    8.04e+00    0    1.59e+00
2002 04 26  1540    52390   56400      0    7.48e+00    0    1.60e+00
2002 04 26  1545    52390   56700      0    7.55e+00    0    1.62e+00
2002 04 26  1550    52390   57000      0    7.53e+00    0    1.59e+00
2002 04 26  1555    52390   57300      0    7.47e+00    0    1.58e+00
2002 04 26  1600    52390   57600      0    7.46e+00    0    1.61e+00
2002 04 26  1605    52390   57900      0    7.36e+00    0    1.57e+00
2002 04 26  1610    52390   58200      0    7.38e+00    0    1.53e+00
2002 04 26  1615    52390   58500      0    7.40e+00    0    1.53e+00
2002 04 26  1620    52390   58800      0    7.33e+00    0    1.59e+00
2002 04 26  1625    52390   59100      0    7.26e+00    0    1.56e+00
2002 04 26  1630    52390   59400      0    7.29e+00    0    1.59e+00
2002 04 26  1635    52390   59700      0    7.20e+00    0    1.53e+00
2002 04 26  1640    52390   60000      0    7.12e+00    0    1.55e+00
2002 04 26  1645    52390   60300      0    7.04e+00    0    1.54e+00
2002 04 26  1650    52390   60600      0    7.09e+00    0    1.54e+00
2002 04 26  1655    52390   60900      0    6.93e+00    0    1.55e+00
2002 04 26  1700    52390   61200      0    7.06e+00    0    1.58e+00
2002 04 26  1705    52390   61500      0    7.13e+00    0    1.55e+00
2002 04 26  1710    52390   61800      0    7.24e+00    0    1.53e+00
2002 04 26  1715    52390   62100      0    7.32e+00    0    1.58e+00
2002 04 26  1720    52390   62400      0    7.21e+00    0    1.56e+00
2002 04 26  1725    52390   62700      0    7.22e+00    0    1.55e+00
2002 04 26  1730    52390   63000      0    7.22e+00    0    1.56e+00
2002 04 26  1735    52390   63300      0    7.26e+00    0    1.55e+00
2002 04 26  1740    52390   63600      0    7.23e+00    0    1.53e+00
2002 04 26  1745    52390   63900      0    7.11e+00    0    1.46e+00
2002 04 26  1750    52390   64200      0    7.28e+00    0    1.57e+00
2002 04 26  1755    52390   64500      0    7.25e+00    0    1.54e+00
2002 04 26  1800    52390   64800      0    7.29e+00    0    1.59e+00
2002 04 26  1805    52390   65100      0    7.30e+00    0    1.56e+00
2002 04 26  1810    52390   65400      0    7.30e+00    0    1.57e+00
2002 04 26  1815    52390   65700      0    7.25e+00    0    1.52e+00
2002 04 26  1820    52390   66000      0    7.12e+00    0    1.49e+00
2002 04 26  1825    52390   66300      0    7.03e+00    0    1.50e+00
2002 04 26  1830    52390   66600      0    7.24e+00    0    1.58e+00
2002 04 26  1835    52390   66900      0    7.03e+00    0    1.51e+00
2002 04 26  1840    52390   67200      0    7.01e+00    0    1.55e+00
2002 04 26  1845    52390   67500      0    7.00e+00    0    1.52e+00
2002 04 26  1850    52390   67800      0    7.00e+00    0    1.54e+00
2002 04 26  1855    52390   68100      0    6.91e+00    0    1.51e+00
2002 04 26  1900    52390   68400      0    6.89e+00    0    1.48e+00
2002 04 26  1905    52390   68700      0    6.87e+00    0    1.49e+00
2002 04 26  1910    52390   69000      0    7.02e+00    0    1.54e+00
2002 04 26  1915    52390   69300      0    7.28e+00    0    1.58e+00
2002 04 26  1920    52390   69600      0    7.13e+00    0    1.54e+00
2002 04 26  1925    52390   69900      0    6.90e+00    0    1.50e+00
2002 04 26  1930    52390   70200      0    7.03e+00    0    1.54e+00
2002 04 26  1935    52390   70500      0    7.00e+00    0    1.52e+00
2002 04 26  1940    52390   70800      0    7.08e+00    0    1.52e+00
2002 04 26  1945    52390   71100      0    7.09e+00    0    1.59e+00
2002 04 26  1950    52390   71400      0    7.00e+00    0    1.52e+00
2002 04 26  1955    52390   71700      0    6.75e+00    0    1.50e+00
2002 04 26  2000    52390   72000      0    6.59e+00    0    1.42e+00
2002 04 26  2005    52390   72300      0    6.69e+00    0    1.45e+00
2002 04 26  2010    52390   72600      0    6.86e+00    0    1.47e+00
2002 04 26  2015    52390   72900      0    6.86e+00    0    1.52e+00
2002 04 26  2020    52390   73200      0    6.71e+00    0    1.52e+00
2002 04 26  2025    52390   73500      0    6.60e+00    0    1.46e+00
2002 04 26  2030    52390   73800      0    6.58e+00    0    1.44e+00
2002 04 26  2035    52390   74100      0    6.56e+00    0    1.46e+00
2002 04 26  2040    52390   74400      0    6.57e+00    0    1.49e+00
2002 04 26  2045    52390   74700      0    6.50e+00    0    1.42e+00
2002 04 26  2050    52390   75000      0    6.34e+00    0    1.39e+00
2002 04 26  2055    52390   75300      0    6.31e+00    0    1.42e+00
2002 04 26  2100    52390   75600      0    6.39e+00    0    1.42e+00
2002 04 26  2105    52390   75900      0    6.36e+00    0    1.36e+00
2002 04 26  2110    52390   76200      0    6.40e+00    0    1.41e+00
2002 04 26  2115    52390   76500      0    6.37e+00    0    1.39e+00
2002 04 26  2120    52390   76800      0    6.37e+00    0    1.40e+00
2002 04 26  2125    52390   77100      0    6.38e+00    0    1.43e+00
2002 04 26  2130    52390   77400      0    6.19e+00    0    1.36e+00
2002 04 26  2135    52390   77700      0    6.25e+00    0    1.35e+00
2002 04 26  2140    52390   78000      0    6.34e+00    0    1.43e+00
2002 04 26  2145    52390   78300      0    6.34e+00    0    1.42e+00
2002 04 26  2150    52390   78600      0    6.32e+00    0    1.41e+00
2002 04 26  2155    52390   78900      0    6.39e+00    0    1.41e+00
2002 04 26  2200    52390   79200      0    6.24e+00    0    1.39e+00
2002 04 26  2205    52390   79500      0    6.31e+00    0    1.42e+00
2002 04 26  2210    52390   79800      0    6.32e+00    0    1.41e+00
2002 04 26  2215    52390   80100      0    6.29e+00    0    1.41e+00
2002 04 26  2220    52390   80400      0    6.31e+00    0    1.40e+00
2002 04 26  2225    52390   80700      0    6.33e+00    0    1.42e+00
2002 04 26  2230    52390   81000      0    6.30e+00    0    1.42e+00
2002 04 26  2235    52390   81300      0    6.30e+00    0    1.38e+00
2002 04 26  2240    52390   81600      0    6.26e+00    0    1.38e+00
2002 04 26  2245    52390   81900      0    6.30e+00    0    1.42e+00
2002 04 26  2250    52390   82200      0    6.34e+00    0    1.39e+00
2002 04 26  2255    52390   82500      0    6.26e+00    0    1.42e+00
2002 04 26  2300    52390   82800      0    6.31e+00    0    1.43e+00
2002 04 26  2305    52390   83100      0    6.11e+00    0    1.36e+00
2002 04 26  2310    52390   83400      0    6.01e+00    0    1.32e+00
2002 04 26  2315    52390   83700      0    6.14e+00    0    1.36e+00
2002 04 26  2320    52390   84000      0    6.06e+00    0    1.31e+00
2002 04 26  2325    52390   84300      0    5.90e+00    0    1.35e+00
2002 04 26  2330    52390   84600      0    6.00e+00    0    1.36e+00
2002 04 26  2335    52390   84900      0    6.14e+00    0    1.35e+00
2002 04 26  2340    52390   85200      0    6.17e+00    0    1.40e+00
2002 04 26  2345    52390   85500      0    6.18e+00    0    1.41e+00
2002 04 26  2350    52390   85800      0    6.19e+00    0    1.38e+00
2002 04 26  2355    52390   86100      0    6.21e+00    0    1.40e+00
