:Data_list: 20021111_ace_sis_5m.txt
:Created: 2002 Nov 12 0011 UT
# Prepared by the U.S. Dept. of Commerce, NOAA, Space Environment Center.
# Please send comments and suggestions to sec@sec.noaa.gov 
# 
# Units: proton flux p/cs2-sec-ster
# Status(S): 0 = nominal data, 1 to 8 = bad data record, 9 = no data
# Missing data values: -1.00e+05
# Source: ACE Satellite - Solar Isotope Spectrometer
#
# 5-minute averaged Real-time Integral Flux of High-energy Solar Protons
# 
#                 Modified Seconds
# UT Date   Time   Julian  of the      ---- Integral Proton Flux ----
# YR MO DA  HHMM     Day     Day       S    > 10 MeV    S    > 30 MeV
#--------------------------------------------------------------------
2002 11 11  0000    52589       0      0    1.65e+01    0    9.36e-01
2002 11 11  0005    52589     300      0    1.64e+01    0    1.01e+00
2002 11 11  0010    52589     600      0    1.65e+01    0    9.70e-01
2002 11 11  0015    52589     900      0    1.59e+01    0    9.29e-01
2002 11 11  0020    52589    1200      0    1.59e+01    0    8.21e-01
2002 11 11  0025    52589    1500      0    1.53e+01    0    8.99e-01
2002 11 11  0030    52589    1800      0    1.53e+01    0    8.16e-01
2002 11 11  0035    52589    2100      0    1.53e+01    0    9.19e-01
2002 11 11  0040    52589    2400      0    1.57e+01    0    8.73e-01
2002 11 11  0045    52589    2700      0    1.51e+01    0    8.74e-01
2002 11 11  0050    52589    3000      0    1.54e+01    0    8.49e-01
2002 11 11  0055    52589    3300      0    1.49e+01    0    8.73e-01
2002 11 11  0100    52589    3600      0    1.44e+01    0    7.71e-01
2002 11 11  0105    52589    3900      0    1.46e+01    0    8.25e-01
2002 11 11  0110    52589    4200      0    1.46e+01    0    8.92e-01
2002 11 11  0115    52589    4500      0    1.43e+01    0    8.51e-01
2002 11 11  0120    52589    4800      0    1.41e+01    0    8.77e-01
2002 11 11  0125    52589    5100      0    1.50e+01    0    8.91e-01
2002 11 11  0130    52589    5400      0    1.42e+01    0    8.37e-01
2002 11 11  0135    52589    5700      0    1.36e+01    0    8.67e-01
2002 11 11  0140    52589    6000      0    1.42e+01    0    9.24e-01
2002 11 11  0145    52589    6300      0    1.32e+01    0    8.30e-01
2002 11 11  0150    52589    6600      0    1.30e+01    0    8.37e-01
2002 11 11  0155    52589    6900      0    1.29e+01    0    8.11e-01
2002 11 11  0200    52589    7200      0    1.25e+01    0    8.21e-01
2002 11 11  0205    52589    7500      0    1.29e+01    0    8.83e-01
2002 11 11  0210    52589    7800      0    1.25e+01    0    8.57e-01
2002 11 11  0215    52589    8100      0    1.21e+01    0    8.36e-01
2002 11 11  0220    52589    8400      0    1.21e+01    0    7.37e-01
2002 11 11  0225    52589    8700      0    1.24e+01    0    8.42e-01
2002 11 11  0230    52589    9000      0    1.22e+01    0    8.20e-01
2002 11 11  0235    52589    9300      0    1.21e+01    0    8.68e-01
2002 11 11  0240    52589    9600      0    1.13e+01    0    7.62e-01
2002 11 11  0245    52589    9900      0    1.13e+01    0    7.88e-01
2002 11 11  0250    52589   10200      0    1.09e+01    0    7.63e-01
2002 11 11  0255    52589   10500      0    1.07e+01    0    7.74e-01
2002 11 11  0300    52589   10800      0    1.11e+01    0    7.21e-01
2002 11 11  0305    52589   11100      0    1.11e+01    0    7.90e-01
2002 11 11  0310    52589   11400      0    1.10e+01    0    8.37e-01
2002 11 11  0315    52589   11700      0    1.07e+01    0    7.40e-01
2002 11 11  0320    52589   12000      0    1.06e+01    0    7.50e-01
2002 11 11  0325    52589   12300      0    1.04e+01    0    7.94e-01
2002 11 11  0330    52589   12600      0    1.02e+01    0    7.61e-01
2002 11 11  0335    52589   12900      0    1.02e+01    0    7.50e-01
2002 11 11  0340    52589   13200      0    1.03e+01    0    7.72e-01
2002 11 11  0345    52589   13500      0    9.86e+00    0    7.75e-01
2002 11 11  0350    52589   13800      0    9.69e+00    0    7.91e-01
2002 11 11  0355    52589   14100      0    9.74e+00    0    7.83e-01
2002 11 11  0400    52589   14400      0    1.08e+01    0    8.51e-01
2002 11 11  0405    52589   14700      0    9.86e+00    0    7.37e-01
2002 11 11  0410    52589   15000      0    8.73e+00    0    8.34e-01
2002 11 11  0415    52589   15300      0    7.82e+00    0    7.44e-01
2002 11 11  0420    52589   15600      0    8.18e+00    0    8.69e-01
2002 11 11  0425    52589   15900      0    7.70e+00    0    7.91e-01
2002 11 11  0430    52589   16200      0    8.10e+00    0    8.12e-01
2002 11 11  0435    52589   16500      0    8.40e+00    0    8.27e-01
2002 11 11  0440    52589   16800      0    8.09e+00    0    7.83e-01
2002 11 11  0445    52589   17100      0    7.89e+00    0    7.79e-01
2002 11 11  0450    52589   17400      0    8.78e+00    0    9.08e-01
2002 11 11  0455    52589   17700      0    7.42e+00    0    8.42e-01
2002 11 11  0500    52589   18000      0    6.67e+00    0    8.76e-01
2002 11 11  0505    52589   18300      0    6.52e+00    0    8.01e-01
2002 11 11  0510    52589   18600      0    6.26e+00    0    8.36e-01
2002 11 11  0515    52589   18900      0    6.08e+00    0    8.16e-01
2002 11 11  0520    52589   19200      0    5.99e+00    0    7.38e-01
2002 11 11  0525    52589   19500      0    6.00e+00    0    8.23e-01
2002 11 11  0530    52589   19800      0    5.86e+00    0    7.89e-01
2002 11 11  0535    52589   20100      0    5.93e+00    0    7.76e-01
2002 11 11  0540    52589   20400      0    5.95e+00    0    8.00e-01
2002 11 11  0545    52589   20700      0    5.78e+00    0    8.26e-01
2002 11 11  0550    52589   21000      0    5.80e+00    0    7.84e-01
2002 11 11  0555    52589   21300      0    5.79e+00    0    7.78e-01
2002 11 11  0600    52589   21600      0    5.80e+00    0    7.70e-01
2002 11 11  0605    52589   21900      0    5.66e+00    0    7.10e-01
2002 11 11  0610    52589   22200      0    5.71e+00    0    7.52e-01
2002 11 11  0615    52589   22500      0    5.70e+00    0    7.82e-01
2002 11 11  0620    52589   22800      0    5.68e+00    0    7.93e-01
2002 11 11  0625    52589   23100      0    5.65e+00    0    7.83e-01
2002 11 11  0630    52589   23400      0    5.40e+00    0    7.58e-01
2002 11 11  0635    52589   23700      0    5.49e+00    0    7.48e-01
2002 11 11  0640    52589   24000      0    5.43e+00    0    7.80e-01
2002 11 11  0645    52589   24300      0    5.53e+00    0    7.48e-01
2002 11 11  0650    52589   24600      0    5.41e+00    0    7.94e-01
2002 11 11  0655    52589   24900      0    5.32e+00    0    7.54e-01
2002 11 11  0700    52589   25200      0    5.40e+00    0    7.79e-01
2002 11 11  0705    52589   25500      0    5.17e+00    0    7.59e-01
2002 11 11  0710    52589   25800      0    5.35e+00    0    7.80e-01
2002 11 11  0715    52589   26100      0    5.59e+00    0    8.29e-01
2002 11 11  0720    52589   26400      0    5.26e+00    0    7.42e-01
2002 11 11  0725    52589   26700      0    5.24e+00    0    7.44e-01
2002 11 11  0730    52589   27000      0    5.10e+00    0    7.67e-01
2002 11 11  0735    52589   27300      0    5.03e+00    0    7.27e-01
2002 11 11  0740    52589   27600      0    5.06e+00    0    7.86e-01
2002 11 11  0745    52589   27900      0    4.98e+00    0    7.09e-01
2002 11 11  0750    52589   28200      0    5.00e+00    0    7.60e-01
2002 11 11  0755    52589   28500      0    5.04e+00    0    7.49e-01
2002 11 11  0800    52589   28800      0    5.22e+00    0    8.01e-01
2002 11 11  0805    52589   29100      0    4.81e+00    0    7.11e-01
2002 11 11  0810    52589   29400      0    4.89e+00    0    7.59e-01
2002 11 11  0815    52589   29700      0    4.60e+00    0    7.68e-01
2002 11 11  0820    52589   30000      0    4.63e+00    0    7.37e-01
2002 11 11  0825    52589   30300      0    4.75e+00    0    7.50e-01
2002 11 11  0830    52589   30600      0    4.92e+00    0    7.79e-01
2002 11 11  0835    52589   30900      0    4.68e+00    0    7.82e-01
2002 11 11  0840    52589   31200      0    4.48e+00    0    7.19e-01
2002 11 11  0845    52589   31500      0    4.49e+00    0    7.72e-01
2002 11 11  0850    52589   31800      0    4.46e+00    0    7.35e-01
2002 11 11  0855    52589   32100      0    4.64e+00    0    8.20e-01
2002 11 11  0900    52589   32400      0    4.60e+00    0    7.36e-01
2002 11 11  0905    52589   32700      0    4.40e+00    0    7.61e-01
2002 11 11  0910    52589   33000      0    4.43e+00    0    7.42e-01
2002 11 11  0915    52589   33300      0    4.42e+00    0    7.39e-01
2002 11 11  0920    52589   33600      0    4.46e+00    0    7.26e-01
2002 11 11  0925    52589   33900      0    4.24e+00    0    7.38e-01
2002 11 11  0930    52589   34200      0    4.36e+00    0    7.41e-01
2002 11 11  0935    52589   34500      0    4.24e+00    0    7.41e-01
2002 11 11  0940    52589   34800      0    4.28e+00    0    7.57e-01
2002 11 11  0945    52589   35100      0    4.22e+00    0    7.00e-01
2002 11 11  0950    52589   35400      0    4.28e+00    0    7.53e-01
2002 11 11  0955    52589   35700      0    4.12e+00    0    7.38e-01
2002 11 11  1000    52589   36000      0    4.18e+00    0    7.84e-01
2002 11 11  1005    52589   36300      0    3.99e+00    0    7.78e-01
2002 11 11  1010    52589   36600      0    4.02e+00    0    7.59e-01
2002 11 11  1015    52589   36900      0    4.06e+00    0    7.77e-01
2002 11 11  1020    52589   37200      0    3.93e+00    0    7.38e-01
2002 11 11  1025    52589   37500      0    3.91e+00    0    7.50e-01
2002 11 11  1030    52589   37800      0    4.00e+00    0    7.59e-01
2002 11 11  1035    52589   38100      0    3.87e+00    0    7.62e-01
2002 11 11  1040    52589   38400      0    3.91e+00    0    7.79e-01
2002 11 11  1045    52589   38700      0    3.95e+00    0    7.54e-01
2002 11 11  1050    52589   39000      0    3.84e+00    0    7.44e-01
2002 11 11  1055    52589   39300      0    3.76e+00    0    7.20e-01
2002 11 11  1100    52589   39600      0    3.83e+00    0    7.31e-01
2002 11 11  1105    52589   39900      0    3.79e+00    0    7.46e-01
2002 11 11  1110    52589   40200      0    3.78e+00    0    7.27e-01
2002 11 11  1115    52589   40500      0    3.72e+00    0    7.50e-01
2002 11 11  1120    52589   40800      0    3.61e+00    0    7.51e-01
2002 11 11  1125    52589   41100      0    3.63e+00    0    7.61e-01
2002 11 11  1130    52589   41400      0    3.65e+00    0    7.28e-01
2002 11 11  1135    52589   41700      0    3.57e+00    0    7.18e-01
2002 11 11  1140    52589   42000      0    3.63e+00    0    7.47e-01
2002 11 11  1145    52589   42300      0    3.51e+00    0    7.14e-01
2002 11 11  1150    52589   42600      0    3.51e+00    0    7.60e-01
2002 11 11  1155    52589   42900      0    3.41e+00    0    6.93e-01
2002 11 11  1200    52589   43200      0    3.36e+00    0    7.10e-01
2002 11 11  1205    52589   43500      0    3.33e+00    0    7.43e-01
2002 11 11  1210    52589   43800      0    3.19e+00    0    7.08e-01
2002 11 11  1215    52589   44100      0    3.18e+00    0    7.20e-01
2002 11 11  1220    52589   44400      0    3.19e+00    0    7.21e-01
2002 11 11  1225    52589   44700      0    3.14e+00    0    7.11e-01
2002 11 11  1230    52589   45000      0    3.11e+00    0    7.21e-01
2002 11 11  1235    52589   45300      0    3.02e+00    0    6.70e-01
2002 11 11  1240    52589   45600      0    3.10e+00    0    7.02e-01
2002 11 11  1245    52589   45900      0    3.02e+00    0    7.47e-01
2002 11 11  1250    52589   46200      0    2.94e+00    0    7.09e-01
2002 11 11  1255    52589   46500      0    2.92e+00    0    7.15e-01
2002 11 11  1300    52589   46800      0    2.96e+00    0    7.30e-01
2002 11 11  1305    52589   47100      0    2.90e+00    0    7.14e-01
2002 11 11  1310    52589   47400      0    2.88e+00    0    6.86e-01
2002 11 11  1315    52589   47700      0    2.74e+00    0    6.86e-01
2002 11 11  1320    52589   48000      0    2.83e+00    0    6.97e-01
2002 11 11  1325    52589   48300      0    2.76e+00    0    6.82e-01
2002 11 11  1330    52589   48600      0    2.64e+00    0    6.81e-01
2002 11 11  1335    52589   48900      0    2.50e+00    0    6.56e-01
2002 11 11  1340    52589   49200      0    2.47e+00    0    7.07e-01
2002 11 11  1345    52589   49500      0    2.37e+00    0    6.99e-01
2002 11 11  1350    52589   49800      0    2.31e+00    0    6.99e-01
2002 11 11  1355    52589   50100      0    2.32e+00    0    7.13e-01
2002 11 11  1400    52589   50400      0    2.24e+00    0    6.75e-01
2002 11 11  1405    52589   50700      0    2.17e+00    0    6.66e-01
2002 11 11  1410    52589   51000      0    2.17e+00    0    6.66e-01
2002 11 11  1415    52589   51300      0    2.13e+00    0    6.49e-01
2002 11 11  1420    52589   51600      0    2.18e+00    0    6.87e-01
2002 11 11  1425    52589   51900      0    2.11e+00    0    6.62e-01
2002 11 11  1430    52589   52200      0    2.04e+00    0    6.70e-01
2002 11 11  1435    52589   52500      0    2.07e+00    0    6.66e-01
2002 11 11  1440    52589   52800      0    2.12e+00    0    6.86e-01
2002 11 11  1445    52589   53100      0    2.07e+00    0    6.51e-01
2002 11 11  1450    52589   53400      0    2.04e+00    0    6.77e-01
2002 11 11  1455    52589   53700      0    2.03e+00    0    6.80e-01
2002 11 11  1500    52589   54000      0    2.05e+00    0    6.88e-01
2002 11 11  1505    52589   54300      0    2.05e+00    0    6.65e-01
2002 11 11  1510    52589   54600      0    2.05e+00    0    6.76e-01
2002 11 11  1515    52589   54900      0    2.04e+00    0    6.49e-01
2002 11 11  1520    52589   55200      0    2.09e+00    0    6.72e-01
2002 11 11  1525    52589   55500      0    2.05e+00    0    6.74e-01
2002 11 11  1530    52589   55800      0    1.99e+00    0    6.64e-01
2002 11 11  1535    52589   56100      0    2.04e+00    0    6.56e-01
2002 11 11  1540    52589   56400      0    2.14e+00    0    6.93e-01
2002 11 11  1545    52589   56700      0    2.15e+00    0    6.79e-01
2002 11 11  1550    52589   57000      0    2.11e+00    0    7.04e-01
2002 11 11  1555    52589   57300      0    2.12e+00    0    6.64e-01
2002 11 11  1600    52589   57600      0    2.08e+00    0    6.63e-01
2002 11 11  1605    52589   57900      0    2.10e+00    0    6.73e-01
2002 11 11  1610    52589   58200      0    2.02e+00    0    6.51e-01
2002 11 11  1615    52589   58500      0    2.11e+00    0    7.00e-01
2002 11 11  1620    52589   58800      0    2.14e+00    0    6.83e-01
2002 11 11  1625    52589   59100      0    2.13e+00    0    6.77e-01
2002 11 11  1630    52589   59400      0    2.12e+00    0    6.68e-01
2002 11 11  1635    52589   59700      0    2.20e+00    0    6.67e-01
2002 11 11  1640    52589   60000      0    2.16e+00    0    6.87e-01
2002 11 11  1645    52589   60300      0    2.16e+00    0    6.82e-01
2002 11 11  1650    52589   60600      0    2.12e+00    0    6.64e-01
2002 11 11  1655    52589   60900      0    2.14e+00    0    6.87e-01
2002 11 11  1700    52589   61200      0    2.12e+00    0    6.73e-01
2002 11 11  1705    52589   61500      0    2.07e+00    0    6.63e-01
2002 11 11  1710    52589   61800      0    2.00e+00    0    6.44e-01
2002 11 11  1715    52589   62100      0    2.08e+00    0    6.73e-01
2002 11 11  1720    52589   62400      0    2.01e+00    0    6.59e-01
2002 11 11  1725    52589   62700      0    2.03e+00    0    6.61e-01
2002 11 11  1730    52589   63000      0    2.02e+00    0    6.78e-01
2002 11 11  1735    52589   63300      0    2.06e+00    0    6.83e-01
2002 11 11  1740    52589   63600      0    2.01e+00    0    6.74e-01
2002 11 11  1745    52589   63900      0    1.95e+00    0    6.58e-01
2002 11 11  1750    52589   64200      0    1.98e+00    0    6.72e-01
2002 11 11  1755    52589   64500      0    1.92e+00    0    6.38e-01
2002 11 11  1800    52589   64800      0    1.96e+00    0    6.73e-01
2002 11 11  1805    52589   65100      0    1.92e+00    0    6.52e-01
2002 11 11  1810    52589   65400      0    1.85e+00    0    6.41e-01
2002 11 11  1815    52589   65700      0    1.84e+00    0    6.26e-01
2002 11 11  1820    52589   66000      0    1.85e+00    0    6.57e-01
2002 11 11  1825    52589   66300      0    1.82e+00    0    6.52e-01
2002 11 11  1830    52589   66600      0    1.85e+00    0    6.50e-01
2002 11 11  1835    52589   66900      0    1.85e+00    0    6.84e-01
2002 11 11  1840    52589   67200      0    1.76e+00    0    6.43e-01
2002 11 11  1845    52589   67500      0    1.84e+00    0    6.56e-01
2002 11 11  1850    52589   67800      0    1.80e+00    0    6.36e-01
2002 11 11  1855    52589   68100      0    1.82e+00    0    6.55e-01
2002 11 11  1900    52589   68400      0    1.79e+00    0    6.64e-01
2002 11 11  1905    52589   68700      0    1.82e+00    0    6.81e-01
2002 11 11  1910    52589   69000      0    1.76e+00    0    6.50e-01
2002 11 11  1915    52589   69300      0    1.75e+00    0    6.37e-01
2002 11 11  1920    52589   69600      0    1.83e+00    0    6.48e-01
2002 11 11  1925    52589   69900      0    1.89e+00    0    6.80e-01
2002 11 11  1930    52589   70200      0    1.91e+00    0    6.98e-01
2002 11 11  1935    52589   70500      0    1.89e+00    0    6.72e-01
2002 11 11  1940    52589   70800      0    1.86e+00    0    6.74e-01
2002 11 11  1945    52589   71100      0    1.83e+00    0    6.79e-01
2002 11 11  1950    52589   71400      0    1.79e+00    0    6.71e-01
2002 11 11  1955    52589   71700      0    1.75e+00    0    6.48e-01
2002 11 11  2000    52589   72000      0    1.75e+00    0    6.50e-01
2002 11 11  2005    52589   72300      0    1.78e+00    0    6.50e-01
2002 11 11  2010    52589   72600      0    1.85e+00    0    6.91e-01
2002 11 11  2015    52589   72900      0    1.82e+00    0    6.71e-01
2002 11 11  2020    52589   73200      0    1.80e+00    0    6.87e-01
2002 11 11  2025    52589   73500      0    1.79e+00    0    7.00e-01
2002 11 11  2030    52589   73800      0    1.84e+00    0    6.92e-01
2002 11 11  2035    52589   74100      0    1.85e+00    0    6.77e-01
2002 11 11  2040    52589   74400      0    1.78e+00    0    6.62e-01
2002 11 11  2045    52589   74700      0    1.82e+00    0    6.84e-01
2002 11 11  2050    52589   75000      0    1.86e+00    0    6.88e-01
2002 11 11  2055    52589   75300      0    1.87e+00    0    6.61e-01
2002 11 11  2100    52589   75600      0    1.83e+00    0    6.71e-01
2002 11 11  2105    52589   75900      0    1.81e+00    0    6.43e-01
2002 11 11  2110    52589   76200      0    1.83e+00    0    6.76e-01
2002 11 11  2115    52589   76500      0    1.82e+00    0    6.69e-01
2002 11 11  2120    52589   76800      0    1.84e+00    0    6.77e-01
2002 11 11  2125    52589   77100      0    1.81e+00    0    6.61e-01
2002 11 11  2130    52589   77400      0    1.82e+00    0    6.83e-01
2002 11 11  2135    52589   77700      0    1.81e+00    0    6.90e-01
2002 11 11  2140    52589   78000      0    1.83e+00    0    6.73e-01
2002 11 11  2145    52589   78300      0    1.82e+00    0    6.75e-01
2002 11 11  2150    52589   78600      0    1.82e+00    0    6.69e-01
2002 11 11  2155    52589   78900      0    1.81e+00    0    6.72e-01
2002 11 11  2200    52589   79200      0    1.83e+00    0    6.94e-01
2002 11 11  2205    52589   79500      0    1.82e+00    0    6.52e-01
2002 11 11  2210    52589   79800      0    1.90e+00    0    6.80e-01
2002 11 11  2215    52589   80100      0    1.86e+00    0    6.88e-01
2002 11 11  2220    52589   80400      0    1.86e+00    0    7.02e-01
2002 11 11  2225    52589   80700      0    1.88e+00    0    7.00e-01
2002 11 11  2230    52589   81000      0    1.86e+00    0    6.72e-01
2002 11 11  2235    52589   81300      0    1.84e+00    0    6.73e-01
2002 11 11  2240    52589   81600      0    1.77e+00    0    6.61e-01
2002 11 11  2245    52589   81900      0    1.78e+00    0    6.83e-01
2002 11 11  2250    52589   82200      0    1.79e+00    0    6.77e-01
2002 11 11  2255    52589   82500      0    1.80e+00    0    6.66e-01
2002 11 11  2300    52589   82800      9   -1.00e+05    9   -1.00e+05
2002 11 11  2305    52589   83100      0    1.81e+00    0    6.99e-01
2002 11 11  2310    52589   83400      0    1.78e+00    0    6.78e-01
2002 11 11  2315    52589   83700      0    1.73e+00    0    6.67e-01
2002 11 11  2320    52589   84000      0    1.79e+00    0    6.97e-01
2002 11 11  2325    52589   84300      0    1.75e+00    0    6.76e-01
2002 11 11  2330    52589   84600      0    1.78e+00    0    6.84e-01
2002 11 11  2335    52589   84900      0    1.75e+00    0    6.66e-01
2002 11 11  2340    52589   85200      0    1.76e+00    0    6.72e-01
2002 11 11  2345    52589   85500      0    1.74e+00    0    6.93e-01
2002 11 11  2350    52589   85800      0    1.73e+00    0    6.67e-01
2002 11 11  2355    52589   86100      0    1.75e+00    0    6.87e-01
