:Data_list: 20021110_ace_sis_5m.txt
:Created: 2002 Nov 11 0011 UT
# Prepared by the U.S. Dept. of Commerce, NOAA, Space Environment Center.
# Please send comments and suggestions to sec@sec.noaa.gov 
# 
# Units: proton flux p/cs2-sec-ster
# Status(S): 0 = nominal data, 1 to 8 = bad data record, 9 = no data
# Missing data values: -1.00e+05
# Source: ACE Satellite - Solar Isotope Spectrometer
#
# 5-minute averaged Real-time Integral Flux of High-energy Solar Protons
# 
#                 Modified Seconds
# UT Date   Time   Julian  of the      ---- Integral Proton Flux ----
# YR MO DA  HHMM     Day     Day       S    > 10 MeV    S    > 30 MeV
#--------------------------------------------------------------------
2002 11 10  0000    52588       0      0    1.46e+02    0    1.23e+01
2002 11 10  0005    52588     300      0    1.30e+02    0    1.23e+01
2002 11 10  0010    52588     600      0    1.30e+02    0    1.21e+01
2002 11 10  0015    52588     900      0    1.45e+02    0    1.22e+01
2002 11 10  0020    52588    1200      0    1.90e+02    0    1.60e+01
2002 11 10  0025    52588    1500      0    2.21e+02    0    1.58e+01
2002 11 10  0030    52588    1800      0    2.29e+02    0    1.76e+01
2002 11 10  0035    52588    2100      0    2.07e+02    0    1.57e+01
2002 11 10  0040    52588    2400      0    1.67e+02    0    1.36e+01
2002 11 10  0045    52588    2700      0    1.41e+02    0    1.12e+01
2002 11 10  0050    52588    3000      0    1.33e+02    0    1.08e+01
2002 11 10  0055    52588    3300      0    1.29e+02    0    1.03e+01
2002 11 10  0100    52588    3600      0    1.30e+02    0    1.05e+01
2002 11 10  0105    52588    3900      0    1.42e+02    0    1.21e+01
2002 11 10  0110    52588    4200      0    1.73e+02    0    1.32e+01
2002 11 10  0115    52588    4500      0    1.76e+02    0    1.34e+01
2002 11 10  0120    52588    4800      0    2.06e+02    0    1.43e+01
2002 11 10  0125    52588    5100      0    1.94e+02    0    1.36e+01
2002 11 10  0130    52588    5400      0    1.90e+02    0    1.35e+01
2002 11 10  0135    52588    5700      0    1.85e+02    0    1.31e+01
2002 11 10  0140    52588    6000      0    1.70e+02    0    1.24e+01
2002 11 10  0145    52588    6300      0    1.78e+02    0    1.31e+01
2002 11 10  0150    52588    6600      0    1.91e+02    0    1.29e+01
2002 11 10  0155    52588    6900      0    1.91e+02    0    1.35e+01
2002 11 10  0200    52588    7200      0    1.84e+02    0    1.21e+01
2002 11 10  0205    52588    7500      0    1.89e+02    0    1.26e+01
2002 11 10  0210    52588    7800      0    2.07e+02    0    1.32e+01
2002 11 10  0215    52588    8100      0    2.09e+02    0    1.30e+01
2002 11 10  0220    52588    8400      0    3.42e+02    0    1.80e+01
2002 11 10  0225    52588    8700      0    5.47e+02    0    2.66e+01
2002 11 10  0230    52588    9000      0    7.40e+02    0    3.11e+01
2002 11 10  0235    52588    9300      0    5.83e+02    0    2.54e+01
2002 11 10  0240    52588    9600      0    5.32e+02    0    2.45e+01
2002 11 10  0245    52588    9900      0    5.16e+02    0    2.47e+01
2002 11 10  0250    52588   10200      0    4.96e+02    0    2.26e+01
2002 11 10  0255    52588   10500      0    3.67e+02    0    1.91e+01
2002 11 10  0300    52588   10800      0    2.88e+02    0    1.60e+01
2002 11 10  0305    52588   11100      0    2.72e+02    0    1.55e+01
2002 11 10  0310    52588   11400      0    2.66e+02    0    1.41e+01
2002 11 10  0315    52588   11700      0    3.09e+02    0    1.62e+01
2002 11 10  0320    52588   12000      0    3.69e+02    0    1.72e+01
2002 11 10  0325    52588   12300      0    3.44e+02    0    1.63e+01
2002 11 10  0330    52588   12600      0    3.28e+02    0    1.68e+01
2002 11 10  0335    52588   12900      0    3.27e+02    0    1.61e+01
2002 11 10  0340    52588   13200      0    3.55e+02    0    1.63e+01
2002 11 10  0345    52588   13500      0    4.00e+02    0    1.92e+01
2002 11 10  0350    52588   13800      0    4.16e+02    0    1.88e+01
2002 11 10  0355    52588   14100      0    3.61e+02    0    1.76e+01
2002 11 10  0400    52588   14400      0    3.43e+02    0    1.66e+01
2002 11 10  0405    52588   14700      0    3.72e+02    0    1.67e+01
2002 11 10  0410    52588   15000      0    4.17e+02    0    1.75e+01
2002 11 10  0415    52588   15300      0    4.82e+02    0    2.11e+01
2002 11 10  0420    52588   15600      0    4.85e+02    0    2.18e+01
2002 11 10  0425    52588   15900      0    4.62e+02    0    2.17e+01
2002 11 10  0430    52588   16200      0    4.53e+02    0    2.17e+01
2002 11 10  0435    52588   16500      0    4.26e+02    0    2.07e+01
2002 11 10  0440    52588   16800      0    4.38e+02    0    2.04e+01
2002 11 10  0445    52588   17100      0    4.41e+02    0    2.00e+01
2002 11 10  0450    52588   17400      0    4.16e+02    0    1.95e+01
2002 11 10  0455    52588   17700      0    3.81e+02    0    1.71e+01
2002 11 10  0500    52588   18000      0    3.11e+02    0    1.49e+01
2002 11 10  0505    52588   18300      0    2.84e+02    0    1.33e+01
2002 11 10  0510    52588   18600      0    2.86e+02    0    1.39e+01
2002 11 10  0515    52588   18900      0    2.69e+02    0    1.36e+01
2002 11 10  0520    52588   19200      0    2.75e+02    0    1.33e+01
2002 11 10  0525    52588   19500      0    2.74e+02    0    1.24e+01
2002 11 10  0530    52588   19800      0    2.95e+02    0    1.42e+01
2002 11 10  0535    52588   20100      0    2.84e+02    0    1.32e+01
2002 11 10  0540    52588   20400      0    2.62e+02    0    1.12e+01
2002 11 10  0545    52588   20700      0    2.72e+02    0    1.20e+01
2002 11 10  0550    52588   21000      0    2.59e+02    0    1.11e+01
2002 11 10  0555    52588   21300      0    2.59e+02    0    1.19e+01
2002 11 10  0600    52588   21600      0    2.60e+02    0    1.18e+01
2002 11 10  0605    52588   21900      0    2.77e+02    0    1.30e+01
2002 11 10  0610    52588   22200      0    2.57e+02    0    1.24e+01
2002 11 10  0615    52588   22500      0    2.47e+02    0    1.08e+01
2002 11 10  0620    52588   22800      0    2.44e+02    0    1.08e+01
2002 11 10  0625    52588   23100      0    2.48e+02    0    1.13e+01
2002 11 10  0630    52588   23400      0    2.24e+02    0    1.01e+01
2002 11 10  0635    52588   23700      0    1.84e+02    0    8.13e+00
2002 11 10  0640    52588   24000      0    1.59e+02    0    7.94e+00
2002 11 10  0645    52588   24300      0    1.64e+02    0    7.98e+00
2002 11 10  0650    52588   24600      0    1.64e+02    0    8.02e+00
2002 11 10  0655    52588   24900      0    1.60e+02    0    7.27e+00
2002 11 10  0700    52588   25200      0    1.34e+02    0    7.05e+00
2002 11 10  0705    52588   25500      0    1.15e+02    0    5.91e+00
2002 11 10  0710    52588   25800      0    1.03e+02    0    5.60e+00
2002 11 10  0715    52588   26100      0    7.57e+01    0    4.19e+00
2002 11 10  0720    52588   26400      0    5.90e+01    0    4.01e+00
2002 11 10  0725    52588   26700      0    5.45e+01    0    3.51e+00
2002 11 10  0730    52588   27000      0    5.03e+01    0    3.28e+00
2002 11 10  0735    52588   27300      0    5.09e+01    0    3.36e+00
2002 11 10  0740    52588   27600      0    5.36e+01    0    3.34e+00
2002 11 10  0745    52588   27900      0    5.31e+01    0    3.42e+00
2002 11 10  0750    52588   28200      0    5.27e+01    0    3.24e+00
2002 11 10  0755    52588   28500      0    5.41e+01    0    3.60e+00
2002 11 10  0800    52588   28800      0    5.56e+01    0    3.67e+00
2002 11 10  0805    52588   29100      0    5.43e+01    0    3.40e+00
2002 11 10  0810    52588   29400      0    5.34e+01    0    3.20e+00
2002 11 10  0815    52588   29700      9   -1.00e+05    9   -1.00e+05
2002 11 10  0820    52588   30000      0    6.78e+01    0    3.64e+00
2002 11 10  0825    52588   30300      0    6.79e+01    0    3.78e+00
2002 11 10  0830    52588   30600      0    7.83e+01    0    4.01e+00
2002 11 10  0835    52588   30900      0    7.69e+01    0    4.09e+00
2002 11 10  0840    52588   31200      0    6.12e+01    0    3.46e+00
2002 11 10  0845    52588   31500      0    6.78e+01    0    3.53e+00
2002 11 10  0850    52588   31800      0    7.00e+01    0    3.71e+00
2002 11 10  0855    52588   32100      0    6.71e+01    0    3.61e+00
2002 11 10  0900    52588   32400      0    6.84e+01    0    3.25e+00
2002 11 10  0905    52588   32700      0    5.81e+01    0    3.26e+00
2002 11 10  0910    52588   33000      0    5.11e+01    0    3.20e+00
2002 11 10  0915    52588   33300      0    5.13e+01    0    3.22e+00
2002 11 10  0920    52588   33600      0    5.42e+01    0    3.13e+00
2002 11 10  0925    52588   33900      0    5.19e+01    0    3.16e+00
2002 11 10  0930    52588   34200      0    5.05e+01    0    2.93e+00
2002 11 10  0935    52588   34500      0    5.17e+01    0    3.11e+00
2002 11 10  0940    52588   34800      0    5.01e+01    0    2.96e+00
2002 11 10  0945    52588   35100      0    5.18e+01    0    3.13e+00
2002 11 10  0950    52588   35400      0    5.38e+01    0    3.15e+00
2002 11 10  0955    52588   35700      0    5.59e+01    0    3.38e+00
2002 11 10  1000    52588   36000      0    5.65e+01    0    3.40e+00
2002 11 10  1005    52588   36300      0    6.08e+01    0    3.22e+00
2002 11 10  1010    52588   36600      0    6.32e+01    0    3.37e+00
2002 11 10  1015    52588   36900      0    6.38e+01    0    3.31e+00
2002 11 10  1020    52588   37200      0    6.98e+01    0    3.29e+00
2002 11 10  1025    52588   37500      0    6.84e+01    0    3.34e+00
2002 11 10  1030    52588   37800      0    7.03e+01    0    3.33e+00
2002 11 10  1035    52588   38100      0    7.38e+01    0    3.33e+00
2002 11 10  1040    52588   38400      0    8.13e+01    0    3.66e+00
2002 11 10  1045    52588   38700      0    7.63e+01    0    3.38e+00
2002 11 10  1050    52588   39000      0    6.95e+01    0    3.29e+00
2002 11 10  1055    52588   39300      0    6.90e+01    0    3.07e+00
2002 11 10  1100    52588   39600      0    6.95e+01    0    3.27e+00
2002 11 10  1105    52588   39900      0    6.98e+01    0    3.37e+00
2002 11 10  1110    52588   40200      0    7.45e+01    0    3.48e+00
2002 11 10  1115    52588   40500      0    9.04e+01    0    3.36e+00
2002 11 10  1120    52588   40800      0    9.25e+01    0    3.81e+00
2002 11 10  1125    52588   41100      0    9.19e+01    0    3.68e+00
2002 11 10  1130    52588   41400      0    9.09e+01    0    3.88e+00
2002 11 10  1135    52588   41700      0    8.53e+01    0    3.78e+00
2002 11 10  1140    52588   42000      0    7.67e+01    0    3.11e+00
2002 11 10  1145    52588   42300      0    7.54e+01    0    3.21e+00
2002 11 10  1150    52588   42600      0    8.01e+01    0    3.54e+00
2002 11 10  1155    52588   42900      0    7.59e+01    0    3.51e+00
2002 11 10  1200    52588   43200      0    7.70e+01    0    3.09e+00
2002 11 10  1205    52588   43500      0    8.03e+01    0    3.04e+00
2002 11 10  1210    52588   43800      0    7.37e+01    0    3.04e+00
2002 11 10  1215    52588   44100      0    6.77e+01    0    2.85e+00
2002 11 10  1220    52588   44400      0    6.68e+01    0    2.76e+00
2002 11 10  1225    52588   44700      0    6.14e+01    0    2.88e+00
2002 11 10  1230    52588   45000      0    5.44e+01    0    2.29e+00
2002 11 10  1235    52588   45300      0    5.54e+01    0    2.95e+00
2002 11 10  1240    52588   45600      0    5.39e+01    0    2.50e+00
2002 11 10  1245    52588   45900      0    5.58e+01    0    2.39e+00
2002 11 10  1250    52588   46200      0    5.82e+01    0    2.45e+00
2002 11 10  1255    52588   46500      0    5.85e+01    0    2.54e+00
2002 11 10  1300    52588   46800      0    7.20e+01    0    2.74e+00
2002 11 10  1305    52588   47100      0    6.88e+01    0    2.93e+00
2002 11 10  1310    52588   47400      0    6.18e+01    0    2.73e+00
2002 11 10  1315    52588   47700      0    5.74e+01    0    2.42e+00
2002 11 10  1320    52588   48000      0    5.97e+01    0    2.40e+00
2002 11 10  1325    52588   48300      0    5.91e+01    0    2.32e+00
2002 11 10  1330    52588   48600      0    5.75e+01    0    2.52e+00
2002 11 10  1335    52588   48900      0    5.83e+01    0    2.67e+00
2002 11 10  1340    52588   49200      0    6.00e+01    0    2.75e+00
2002 11 10  1345    52588   49500      0    5.00e+01    0    2.12e+00
2002 11 10  1350    52588   49800      0    5.03e+01    0    2.22e+00
2002 11 10  1355    52588   50100      0    5.30e+01    0    2.39e+00
2002 11 10  1400    52588   50400      0    4.80e+01    0    2.01e+00
2002 11 10  1405    52588   50700      0    4.70e+01    0    2.13e+00
2002 11 10  1410    52588   51000      0    4.96e+01    0    2.12e+00
2002 11 10  1415    52588   51300      0    4.99e+01    0    2.02e+00
2002 11 10  1420    52588   51600      0    4.61e+01    0    2.31e+00
2002 11 10  1425    52588   51900      0    4.92e+01    0    2.51e+00
2002 11 10  1430    52588   52200      0    4.84e+01    0    2.19e+00
2002 11 10  1435    52588   52500      0    4.85e+01    0    2.34e+00
2002 11 10  1440    52588   52800      0    4.84e+01    0    2.14e+00
2002 11 10  1445    52588   53100      0    4.42e+01    0    1.97e+00
2002 11 10  1450    52588   53400      0    4.64e+01    0    2.24e+00
2002 11 10  1455    52588   53700      0    4.45e+01    0    2.01e+00
2002 11 10  1500    52588   54000      0    4.52e+01    0    2.28e+00
2002 11 10  1505    52588   54300      0    4.32e+01    0    1.80e+00
2002 11 10  1510    52588   54600      0    4.28e+01    0    2.18e+00
2002 11 10  1515    52588   54900      0    3.65e+01    0    1.63e+00
2002 11 10  1520    52588   55200      0    3.11e+01    0    1.44e+00
2002 11 10  1525    52588   55500      0    3.14e+01    0    1.58e+00
2002 11 10  1530    52588   55800      0    3.03e+01    0    1.65e+00
2002 11 10  1535    52588   56100      0    3.16e+01    0    1.65e+00
2002 11 10  1540    52588   56400      0    3.37e+01    0    1.46e+00
2002 11 10  1545    52588   56700      0    3.37e+01    0    1.61e+00
2002 11 10  1550    52588   57000      0    3.40e+01    0    1.65e+00
2002 11 10  1555    52588   57300      0    3.47e+01    0    1.75e+00
2002 11 10  1600    52588   57600      0    3.80e+01    0    1.81e+00
2002 11 10  1605    52588   57900      0    3.77e+01    0    1.78e+00
2002 11 10  1610    52588   58200      0    3.95e+01    0    1.66e+00
2002 11 10  1615    52588   58500      0    4.09e+01    0    1.81e+00
2002 11 10  1620    52588   58800      0    4.06e+01    0    1.77e+00
2002 11 10  1625    52588   59100      0    3.99e+01    0    1.61e+00
2002 11 10  1630    52588   59400      0    3.66e+01    0    1.65e+00
2002 11 10  1635    52588   59700      0    3.68e+01    0    1.62e+00
2002 11 10  1640    52588   60000      0    3.56e+01    0    1.70e+00
2002 11 10  1645    52588   60300      0    3.27e+01    0    1.45e+00
2002 11 10  1650    52588   60600      0    3.19e+01    0    1.61e+00
2002 11 10  1655    52588   60900      0    3.24e+01    0    1.60e+00
2002 11 10  1700    52588   61200      0    3.33e+01    0    1.63e+00
2002 11 10  1705    52588   61500      0    3.27e+01    0    1.41e+00
2002 11 10  1710    52588   61800      0    3.45e+01    0    1.69e+00
2002 11 10  1715    52588   62100      0    3.86e+01    0    1.56e+00
2002 11 10  1720    52588   62400      0    3.60e+01    0    1.57e+00
2002 11 10  1725    52588   62700      0    3.86e+01    0    1.68e+00
2002 11 10  1730    52588   63000      0    3.57e+01    0    1.42e+00
2002 11 10  1735    52588   63300      0    3.33e+01    0    1.57e+00
2002 11 10  1740    52588   63600      0    3.38e+01    0    1.47e+00
2002 11 10  1745    52588   63900      0    3.22e+01    0    1.44e+00
2002 11 10  1750    52588   64200      0    3.22e+01    0    1.41e+00
2002 11 10  1755    52588   64500      0    3.18e+01    0    1.50e+00
2002 11 10  1800    52588   64800      0    3.00e+01    0    1.30e+00
2002 11 10  1805    52588   65100      0    3.06e+01    0    1.41e+00
2002 11 10  1810    52588   65400      0    3.08e+01    0    1.34e+00
2002 11 10  1815    52588   65700      0    3.11e+01    0    1.27e+00
2002 11 10  1820    52588   66000      0    3.25e+01    0    1.42e+00
2002 11 10  1825    52588   66300      0    3.32e+01    0    1.34e+00
2002 11 10  1830    52588   66600      0    3.28e+01    0    1.32e+00
2002 11 10  1835    52588   66900      0    3.40e+01    0    1.44e+00
2002 11 10  1840    52588   67200      0    3.44e+01    0    1.53e+00
2002 11 10  1845    52588   67500      0    3.60e+01    0    1.54e+00
2002 11 10  1850    52588   67800      0    4.15e+01    0    1.59e+00
2002 11 10  1855    52588   68100      0    3.77e+01    0    1.57e+00
2002 11 10  1900    52588   68400      0    3.40e+01    0    1.37e+00
2002 11 10  1905    52588   68700      0    3.47e+01    0    1.52e+00
2002 11 10  1910    52588   69000      0    3.53e+01    0    1.60e+00
2002 11 10  1915    52588   69300      0    3.76e+01    0    1.52e+00
2002 11 10  1920    52588   69600      0    4.03e+01    0    1.68e+00
2002 11 10  1925    52588   69900      0    3.99e+01    0    1.46e+00
2002 11 10  1930    52588   70200      0    3.70e+01    0    1.42e+00
2002 11 10  1935    52588   70500      0    3.93e+01    0    1.33e+00
2002 11 10  1940    52588   70800      0    3.81e+01    0    1.45e+00
2002 11 10  1945    52588   71100      0    3.61e+01    0    1.58e+00
2002 11 10  1950    52588   71400      0    3.69e+01    0    1.40e+00
2002 11 10  1955    52588   71700      0    3.68e+01    0    1.32e+00
2002 11 10  2000    52588   72000      0    3.67e+01    0    1.25e+00
2002 11 10  2005    52588   72300      0    3.54e+01    0    1.27e+00
2002 11 10  2010    52588   72600      0    3.63e+01    0    1.14e+00
2002 11 10  2015    52588   72900      0    3.57e+01    0    1.30e+00
2002 11 10  2020    52588   73200      0    3.55e+01    0    1.40e+00
2002 11 10  2025    52588   73500      0    3.27e+01    0    1.27e+00
2002 11 10  2030    52588   73800      0    3.10e+01    0    1.43e+00
2002 11 10  2035    52588   74100      0    2.76e+01    0    1.17e+00
2002 11 10  2040    52588   74400      0    2.76e+01    0    1.24e+00
2002 11 10  2045    52588   74700      0    2.66e+01    0    1.25e+00
2002 11 10  2050    52588   75000      0    2.63e+01    0    1.18e+00
2002 11 10  2055    52588   75300      0    2.57e+01    0    1.19e+00
2002 11 10  2100    52588   75600      0    2.47e+01    0    1.17e+00
2002 11 10  2105    52588   75900      0    2.44e+01    0    1.09e+00
2002 11 10  2110    52588   76200      0    2.75e+01    0    1.29e+00
2002 11 10  2115    52588   76500      0    2.69e+01    0    1.27e+00
2002 11 10  2120    52588   76800      0    2.69e+01    0    1.17e+00
2002 11 10  2125    52588   77100      0    2.73e+01    0    1.18e+00
2002 11 10  2130    52588   77400      0    2.78e+01    0    1.13e+00
2002 11 10  2135    52588   77700      0    2.78e+01    0    1.19e+00
2002 11 10  2140    52588   78000      0    2.81e+01    0    1.11e+00
2002 11 10  2145    52588   78300      0    2.71e+01    0    1.15e+00
2002 11 10  2150    52588   78600      0    2.75e+01    0    1.17e+00
2002 11 10  2155    52588   78900      0    2.69e+01    0    1.28e+00
2002 11 10  2200    52588   79200      9   -1.00e+05    9   -1.00e+05
2002 11 10  2205    52588   79500      9   -1.00e+05    9   -1.00e+05
2002 11 10  2210    52588   79800      9   -1.00e+05    9   -1.00e+05
2002 11 10  2215    52588   80100      0    2.49e+01    0    1.16e+00
2002 11 10  2220    52588   80400      0    2.27e+01    0    1.09e+00
2002 11 10  2225    52588   80700      0    2.04e+01    0    1.01e+00
2002 11 10  2230    52588   81000      0    1.92e+01    0    9.39e-01
2002 11 10  2235    52588   81300      0    1.96e+01    0    9.99e-01
2002 11 10  2240    52588   81600      0    1.83e+01    0    9.97e-01
2002 11 10  2245    52588   81900      0    1.82e+01    0    9.72e-01
2002 11 10  2250    52588   82200      0    1.72e+01    0    9.03e-01
2002 11 10  2255    52588   82500      0    1.82e+01    0    1.14e+00
2002 11 10  2300    52588   82800      9   -1.00e+05    9   -1.00e+05
2002 11 10  2305    52588   83100      0    1.76e+01    0    9.33e-01
2002 11 10  2310    52588   83400      0    1.76e+01    0    1.06e+00
2002 11 10  2315    52588   83700      0    1.74e+01    0    9.18e-01
2002 11 10  2320    52588   84000      0    1.73e+01    0    9.87e-01
2002 11 10  2325    52588   84300      0    1.73e+01    0    1.00e+00
2002 11 10  2330    52588   84600      0    1.74e+01    0    1.02e+00
2002 11 10  2335    52588   84900      0    1.70e+01    0    9.27e-01
2002 11 10  2340    52588   85200      0    1.75e+01    0    9.10e-01
2002 11 10  2345    52588   85500      0    1.76e+01    0    9.00e-01
2002 11 10  2350    52588   85800      0    1.68e+01    0    9.04e-01
2002 11 10  2355    52588   86100      0    1.62e+01    0    8.41e-01
