:Data_list: 20050915_ace_sis_5m.txt
:Created: 2005 Sep 16 0011 UT
# Prepared by the U.S. Dept. of Commerce, NOAA, Space Environment Center.
# Please send comments and suggestions to SEC.Webmaster@noaa.gov 
# 
# Units: proton flux p/cs2-sec-ster
# Status(S): 0 = nominal data, 1 to 8 = bad data record, 9 = no data
# Missing data values: -1.00e+05
# Source: ACE Satellite - Solar Isotope Spectrometer
#
# 5-minute averaged Real-time Integral Flux of High-energy Solar Protons
# 
#                 Modified Seconds
# UT Date   Time   Julian  of the      ---- Integral Proton Flux ----
# YR MO DA  HHMM     Day     Day       S    > 10 MeV    S    > 30 MeV
#--------------------------------------------------------------------
2005 09 15  0000    53628       0      0    1.50e+02    0    8.46e+00
2005 09 15  0005    53628     300      0    1.61e+02    0    8.00e+00
2005 09 15  0010    53628     600      0    1.64e+02    0    8.57e+00
2005 09 15  0015    53628     900      0    1.59e+02    0    8.38e+00
2005 09 15  0020    53628    1200      0    1.65e+02    0    9.21e+00
2005 09 15  0025    53628    1500      0    1.62e+02    0    8.26e+00
2005 09 15  0030    53628    1800      0    1.61e+02    0    8.62e+00
2005 09 15  0035    53628    2100      0    1.68e+02    0    7.74e+00
2005 09 15  0040    53628    2400      0    1.92e+02    0    8.44e+00
2005 09 15  0045    53628    2700      0    2.01e+02    0    8.80e+00
2005 09 15  0050    53628    3000      0    1.95e+02    0    9.99e+00
2005 09 15  0055    53628    3300      0    2.16e+02    0    9.80e+00
2005 09 15  0100    53628    3600      0    2.32e+02    0    1.01e+01
2005 09 15  0105    53628    3900      0    2.39e+02    0    1.13e+01
2005 09 15  0110    53628    4200      0    2.37e+02    0    9.75e+00
2005 09 15  0115    53628    4500      0    2.28e+02    0    9.49e+00
2005 09 15  0120    53628    4800      0    2.16e+02    0    1.01e+01
2005 09 15  0125    53628    5100      0    2.13e+02    0    9.35e+00
2005 09 15  0130    53628    5400      0    2.12e+02    0    1.04e+01
2005 09 15  0135    53628    5700      0    2.13e+02    0    8.90e+00
2005 09 15  0140    53628    6000      0    2.18e+02    0    1.02e+01
2005 09 15  0145    53628    6300      0    2.31e+02    0    1.01e+01
2005 09 15  0150    53628    6600      0    2.30e+02    0    9.85e+00
2005 09 15  0155    53628    6900      0    2.27e+02    0    9.96e+00
2005 09 15  0200    53628    7200      0    2.15e+02    0    8.82e+00
2005 09 15  0205    53628    7500      0    2.19e+02    0    9.32e+00
2005 09 15  0210    53628    7800      0    2.16e+02    0    8.84e+00
2005 09 15  0215    53628    8100      0    2.16e+02    0    9.23e+00
2005 09 15  0220    53628    8400      0    2.11e+02    0    9.23e+00
2005 09 15  0225    53628    8700      0    2.14e+02    0    8.49e+00
2005 09 15  0230    53628    9000      0    2.16e+02    0    9.78e+00
2005 09 15  0235    53628    9300      0    2.10e+02    0    9.57e+00
2005 09 15  0240    53628    9600      0    2.12e+02    0    8.98e+00
2005 09 15  0245    53628    9900      0    2.13e+02    0    8.78e+00
2005 09 15  0250    53628   10200      0    2.13e+02    0    8.60e+00
2005 09 15  0255    53628   10500      0    2.14e+02    0    9.45e+00
2005 09 15  0300    53628   10800      0    2.18e+02    0    9.29e+00
2005 09 15  0305    53628   11100      0    2.16e+02    0    8.83e+00
2005 09 15  0310    53628   11400      0    2.16e+02    0    8.79e+00
2005 09 15  0315    53628   11700      0    2.20e+02    0    9.25e+00
2005 09 15  0320    53628   12000      0    2.23e+02    0    9.05e+00
2005 09 15  0325    53628   12300      0    2.32e+02    0    8.99e+00
2005 09 15  0330    53628   12600      0    2.62e+02    0    1.00e+01
2005 09 15  0335    53628   12900      0    2.46e+02    0    1.02e+01
2005 09 15  0340    53628   13200      0    2.50e+02    0    9.20e+00
2005 09 15  0345    53628   13500      0    2.58e+02    0    1.02e+01
2005 09 15  0350    53628   13800      0    2.57e+02    0    9.53e+00
2005 09 15  0355    53628   14100      0    2.61e+02    0    1.04e+01
2005 09 15  0400    53628   14400      0    2.87e+02    0    1.07e+01
2005 09 15  0405    53628   14700      0    2.97e+02    0    1.00e+01
2005 09 15  0410    53628   15000      0    2.72e+02    0    1.09e+01
2005 09 15  0415    53628   15300      0    2.72e+02    0    1.04e+01
2005 09 15  0420    53628   15600      0    2.76e+02    0    9.86e+00
2005 09 15  0425    53628   15900      0    2.76e+02    0    1.06e+01
2005 09 15  0430    53628   16200      0    3.15e+02    0    1.02e+01
2005 09 15  0435    53628   16500      0    3.35e+02    0    1.32e+01
2005 09 15  0440    53628   16800      0    3.40e+02    0    1.25e+01
2005 09 15  0445    53628   17100      0    3.55e+02    0    1.36e+01
2005 09 15  0450    53628   17400      0    3.65e+02    0    1.17e+01
2005 09 15  0455    53628   17700      0    3.87e+02    0    1.35e+01
2005 09 15  0500    53628   18000      0    3.71e+02    0    1.36e+01
2005 09 15  0505    53628   18300      0    3.70e+02    0    1.16e+01
2005 09 15  0510    53628   18600      0    3.98e+02    0    1.34e+01
2005 09 15  0515    53628   18900      0    3.98e+02    0    1.28e+01
2005 09 15  0520    53628   19200      0    3.63e+02    0    1.29e+01
2005 09 15  0525    53628   19500      0    3.56e+02    0    1.16e+01
2005 09 15  0530    53628   19800      0    3.45e+02    0    1.14e+01
2005 09 15  0535    53628   20100      0    3.36e+02    0    1.07e+01
2005 09 15  0540    53628   20400      0    3.36e+02    0    1.09e+01
2005 09 15  0545    53628   20700      0    3.70e+02    0    1.33e+01
2005 09 15  0550    53628   21000      0    4.20e+02    0    1.42e+01
2005 09 15  0555    53628   21300      0    4.45e+02    0    1.42e+01
2005 09 15  0600    53628   21600      0    4.63e+02    0    1.53e+01
2005 09 15  0605    53628   21900      0    4.50e+02    0    1.34e+01
2005 09 15  0610    53628   22200      0    4.60e+02    0    1.33e+01
2005 09 15  0615    53628   22500      0    4.48e+02    0    1.19e+01
2005 09 15  0620    53628   22800      0    4.52e+02    0    1.47e+01
2005 09 15  0625    53628   23100      0    4.60e+02    0    1.47e+01
2005 09 15  0630    53628   23400      0    4.58e+02    0    1.39e+01
2005 09 15  0635    53628   23700      0    4.59e+02    0    1.63e+01
2005 09 15  0640    53628   24000      0    4.44e+02    0    1.36e+01
2005 09 15  0645    53628   24300      0    4.47e+02    0    1.31e+01
2005 09 15  0650    53628   24600      0    4.46e+02    0    1.18e+01
2005 09 15  0655    53628   24900      0    4.39e+02    0    1.56e+01
2005 09 15  0700    53628   25200      0    4.45e+02    0    1.32e+01
2005 09 15  0705    53628   25500      0    4.28e+02    0    1.30e+01
2005 09 15  0710    53628   25800      0    4.16e+02    0    1.28e+01
2005 09 15  0715    53628   26100      0    4.03e+02    0    1.37e+01
2005 09 15  0720    53628   26400      0    4.12e+02    0    1.30e+01
2005 09 15  0725    53628   26700      0    4.00e+02    0    1.27e+01
2005 09 15  0730    53628   27000      0    3.97e+02    0    1.14e+01
2005 09 15  0735    53628   27300      0    3.94e+02    0    1.28e+01
2005 09 15  0740    53628   27600      0    3.74e+02    0    1.31e+01
2005 09 15  0745    53628   27900      0    3.52e+02    0    1.25e+01
2005 09 15  0750    53628   28200      0    3.54e+02    0    1.01e+01
2005 09 15  0755    53628   28500      0    3.51e+02    0    9.83e+00
2005 09 15  0800    53628   28800      0    3.36e+02    0    9.39e+00
2005 09 15  0805    53628   29100      0    3.52e+02    0    1.07e+01
2005 09 15  0810    53628   29400      0    3.46e+02    0    1.06e+01
2005 09 15  0815    53628   29700      0    3.38e+02    0    9.88e+00
2005 09 15  0820    53628   30000      0    3.33e+02    0    1.02e+01
2005 09 15  0825    53628   30300      0    3.44e+02    0    1.08e+01
2005 09 15  0830    53628   30600      0    3.34e+02    0    1.10e+01
2005 09 15  0835    53628   30900      0    2.93e+02    0    9.55e+00
2005 09 15  0840    53628   31200      0    2.85e+02    0    8.58e+00
2005 09 15  0845    53628   31500      0    2.85e+02    0    8.43e+00
2005 09 15  0850    53628   31800      0    2.72e+02    0    9.24e+00
2005 09 15  0855    53628   32100      0    2.67e+02    0    8.64e+00
2005 09 15  0900    53628   32400      0    2.62e+02    0    8.56e+00
2005 09 15  0905    53628   32700      0    2.63e+02    0    9.39e+00
2005 09 15  0910    53628   33000      0    2.50e+02    0    8.56e+00
2005 09 15  0915    53628   33300      0    2.34e+02    0    8.93e+00
2005 09 15  0920    53628   33600      0    2.38e+02    0    9.07e+00
2005 09 15  0925    53628   33900      0    2.36e+02    0    7.76e+00
2005 09 15  0930    53628   34200      0    2.40e+02    0    8.20e+00
2005 09 15  0935    53628   34500      0    2.26e+02    0    6.91e+00
2005 09 15  0940    53628   34800      0    2.17e+02    0    7.55e+00
2005 09 15  0945    53628   35100      0    2.14e+02    0    6.55e+00
2005 09 15  0950    53628   35400      0    2.19e+02    0    8.37e+00
2005 09 15  0955    53628   35700      0    2.30e+02    0    6.34e+00
2005 09 15  1000    53628   36000      0    2.06e+02    0    6.73e+00
2005 09 15  1005    53628   36300      0    1.69e+02    0    6.06e+00
2005 09 15  1010    53628   36600      0    1.60e+02    0    4.62e+00
2005 09 15  1015    53628   36900      0    1.52e+02    0    5.71e+00
2005 09 15  1020    53628   37200      0    1.28e+02    0    5.32e+00
2005 09 15  1025    53628   37500      0    1.24e+02    0    4.10e+00
2005 09 15  1030    53628   37800      0    1.21e+02    0    5.07e+00
2005 09 15  1035    53628   38100      0    1.24e+02    0    5.36e+00
2005 09 15  1040    53628   38400      0    1.32e+02    0    4.76e+00
2005 09 15  1045    53628   38700      0    1.31e+02    0    4.79e+00
2005 09 15  1050    53628   39000      0    1.20e+02    0    4.76e+00
2005 09 15  1055    53628   39300      0    1.09e+02    0    3.98e+00
2005 09 15  1100    53628   39600      0    1.05e+02    0    4.94e+00
2005 09 15  1105    53628   39900      0    1.04e+02    0    4.58e+00
2005 09 15  1110    53628   40200      0    9.91e+01    0    4.61e+00
2005 09 15  1115    53628   40500      0    1.01e+02    0    4.02e+00
2005 09 15  1120    53628   40800      0    9.85e+01    0    3.45e+00
2005 09 15  1125    53628   41100      0    9.94e+01    0    3.62e+00
2005 09 15  1130    53628   41400      0    9.36e+01    0    3.91e+00
2005 09 15  1135    53628   41700      0    9.24e+01    0    3.48e+00
2005 09 15  1140    53628   42000      0    9.52e+01    0    3.93e+00
2005 09 15  1145    53628   42300      0    9.48e+01    0    3.43e+00
2005 09 15  1150    53628   42600      0    1.02e+02    0    3.62e+00
2005 09 15  1155    53628   42900      0    1.02e+02    0    4.52e+00
2005 09 15  1200    53628   43200      0    1.00e+02    0    4.02e+00
2005 09 15  1205    53628   43500      0    9.81e+01    0    4.74e+00
2005 09 15  1210    53628   43800      0    9.71e+01    0    3.86e+00
2005 09 15  1215    53628   44100      0    9.94e+01    0    3.97e+00
2005 09 15  1220    53628   44400      0    9.57e+01    0    3.79e+00
2005 09 15  1225    53628   44700      0    9.95e+01    0    4.37e+00
2005 09 15  1230    53628   45000      0    9.78e+01    0    4.02e+00
2005 09 15  1235    53628   45300      0    9.60e+01    0    3.67e+00
2005 09 15  1240    53628   45600      0    9.61e+01    0    3.77e+00
2005 09 15  1245    53628   45900      0    9.30e+01    0    3.74e+00
2005 09 15  1250    53628   46200      0    9.20e+01    0    3.49e+00
2005 09 15  1255    53628   46500      0    9.37e+01    0    4.53e+00
2005 09 15  1300    53628   46800      0    9.58e+01    0    4.00e+00
2005 09 15  1305    53628   47100      0    9.58e+01    0    2.88e+00
2005 09 15  1310    53628   47400      0    9.92e+01    0    4.03e+00
2005 09 15  1315    53628   47700      0    9.77e+01    0    3.67e+00
2005 09 15  1320    53628   48000      0    1.01e+02    0    3.72e+00
2005 09 15  1325    53628   48300      0    1.05e+02    0    3.87e+00
2005 09 15  1330    53628   48600      0    9.92e+01    0    3.87e+00
2005 09 15  1335    53628   48900      0    8.85e+01    0    3.56e+00
2005 09 15  1340    53628   49200      0    9.27e+01    0    3.37e+00
2005 09 15  1345    53628   49500      0    8.92e+01    0    3.39e+00
2005 09 15  1350    53628   49800      0    8.73e+01    0    3.15e+00
2005 09 15  1355    53628   50100      0    8.68e+01    0    3.37e+00
2005 09 15  1400    53628   50400      0    8.80e+01    0    3.45e+00
2005 09 15  1405    53628   50700      0    8.82e+01    0    3.00e+00
2005 09 15  1410    53628   51000      0    8.70e+01    0    3.53e+00
2005 09 15  1415    53628   51300      0    8.09e+01    0    2.92e+00
2005 09 15  1420    53628   51600      0    8.09e+01    0    3.25e+00
2005 09 15  1425    53628   51900      0    7.39e+01    0    2.55e+00
2005 09 15  1430    53628   52200      0    7.34e+01    0    2.68e+00
2005 09 15  1435    53628   52500      0    7.48e+01    0    2.53e+00
2005 09 15  1440    53628   52800      0    6.94e+01    0    2.34e+00
2005 09 15  1445    53628   53100      0    7.09e+01    0    2.42e+00
2005 09 15  1450    53628   53400      0    7.14e+01    0    2.66e+00
2005 09 15  1455    53628   53700      0    7.07e+01    0    2.04e+00
2005 09 15  1500    53628   54000      0    7.10e+01    0    2.80e+00
2005 09 15  1505    53628   54300      0    6.51e+01    0    2.29e+00
2005 09 15  1510    53628   54600      0    6.49e+01    0    2.16e+00
2005 09 15  1515    53628   54900      0    6.70e+01    0    2.40e+00
2005 09 15  1520    53628   55200      0    5.92e+01    0    2.36e+00
2005 09 15  1525    53628   55500      0    5.64e+01    0    1.94e+00
2005 09 15  1530    53628   55800      0    5.53e+01    0    1.93e+00
2005 09 15  1535    53628   56100      0    5.76e+01    0    1.99e+00
2005 09 15  1540    53628   56400      0    5.73e+01    0    1.65e+00
2005 09 15  1545    53628   56700      9   -1.00e+05    9   -1.00e+05
2005 09 15  1550    53628   57000      0    7.00e+01    0    2.10e+00
2005 09 15  1555    53628   57300      0    6.82e+01    0    2.12e+00
2005 09 15  1600    53628   57600      0    7.04e+01    0    2.14e+00
2005 09 15  1605    53628   57900      0    6.68e+01    0    2.38e+00
2005 09 15  1610    53628   58200      0    6.69e+01    0    2.20e+00
2005 09 15  1615    53628   58500      0    5.77e+01    0    1.81e+00
2005 09 15  1620    53628   58800      0    4.99e+01    0    2.14e+00
2005 09 15  1625    53628   59100      0    4.90e+01    0    1.94e+00
2005 09 15  1630    53628   59400      0    4.91e+01    0    1.99e+00
2005 09 15  1635    53628   59700      0    4.82e+01    0    1.93e+00
2005 09 15  1640    53628   60000      0    5.01e+01    0    1.99e+00
2005 09 15  1645    53628   60300      0    4.85e+01    0    2.27e+00
2005 09 15  1650    53628   60600      0    4.86e+01    0    2.10e+00
2005 09 15  1655    53628   60900      0    4.61e+01    0    1.68e+00
2005 09 15  1700    53628   61200      0    4.47e+01    0    1.93e+00
2005 09 15  1705    53628   61500      0    4.54e+01    0    2.02e+00
2005 09 15  1710    53628   61800      0    4.49e+01    0    2.03e+00
2005 09 15  1715    53628   62100      0    4.51e+01    0    2.31e+00
2005 09 15  1720    53628   62400      0    4.24e+01    0    2.26e+00
2005 09 15  1725    53628   62700      0    4.11e+01    0    2.30e+00
2005 09 15  1730    53628   63000      0    4.05e+01    0    2.29e+00
2005 09 15  1735    53628   63300      0    4.05e+01    0    2.32e+00
2005 09 15  1740    53628   63600      0    3.94e+01    0    1.73e+00
2005 09 15  1745    53628   63900      0    3.97e+01    0    1.89e+00
2005 09 15  1750    53628   64200      0    3.91e+01    0    1.99e+00
2005 09 15  1755    53628   64500      0    3.80e+01    0    2.03e+00
2005 09 15  1800    53628   64800      0    3.83e+01    0    2.01e+00
2005 09 15  1805    53628   65100      0    3.64e+01    0    2.04e+00
2005 09 15  1810    53628   65400      0    3.72e+01    0    2.21e+00
2005 09 15  1815    53628   65700      0    3.63e+01    0    1.99e+00
2005 09 15  1820    53628   66000      0    3.51e+01    0    2.24e+00
2005 09 15  1825    53628   66300      0    3.54e+01    0    2.15e+00
2005 09 15  1830    53628   66600      0    3.45e+01    0    2.10e+00
2005 09 15  1835    53628   66900      0    3.43e+01    0    2.08e+00
2005 09 15  1840    53628   67200      0    3.39e+01    0    2.02e+00
2005 09 15  1845    53628   67500      0    3.38e+01    0    1.96e+00
2005 09 15  1850    53628   67800      0    3.29e+01    0    2.12e+00
2005 09 15  1855    53628   68100      0    3.06e+01    0    2.30e+00
2005 09 15  1900    53628   68400      0    2.86e+01    0    2.27e+00
2005 09 15  1905    53628   68700      0    2.89e+01    0    2.17e+00
2005 09 15  1910    53628   69000      0    2.92e+01    0    2.58e+00
2005 09 15  1915    53628   69300      0    2.83e+01    0    2.07e+00
2005 09 15  1920    53628   69600      0    2.86e+01    0    2.22e+00
2005 09 15  1925    53628   69900      0    2.92e+01    0    2.13e+00
2005 09 15  1930    53628   70200      0    2.86e+01    0    2.13e+00
2005 09 15  1935    53628   70500      0    2.79e+01    0    2.16e+00
2005 09 15  1940    53628   70800      0    2.74e+01    0    2.11e+00
2005 09 15  1945    53628   71100      0    2.73e+01    0    2.39e+00
2005 09 15  1950    53628   71400      0    2.74e+01    0    2.12e+00
2005 09 15  1955    53628   71700      0    2.77e+01    0    2.10e+00
2005 09 15  2000    53628   72000      0    2.66e+01    0    2.11e+00
2005 09 15  2005    53628   72300      0    2.73e+01    0    2.15e+00
2005 09 15  2010    53628   72600      0    2.65e+01    0    2.17e+00
2005 09 15  2015    53628   72900      0    2.67e+01    0    2.09e+00
2005 09 15  2020    53628   73200      0    2.71e+01    0    2.14e+00
2005 09 15  2025    53628   73500      0    2.70e+01    0    2.07e+00
2005 09 15  2030    53628   73800      0    2.64e+01    0    1.90e+00
2005 09 15  2035    53628   74100      0    2.70e+01    0    2.03e+00
2005 09 15  2040    53628   74400      0    2.64e+01    0    2.03e+00
2005 09 15  2045    53628   74700      0    2.66e+01    0    2.19e+00
2005 09 15  2050    53628   75000      0    2.66e+01    0    1.89e+00
2005 09 15  2055    53628   75300      0    2.20e+01    0    1.73e+00
2005 09 15  2100    53628   75600      0    2.68e+01    0    2.15e+00
2005 09 15  2105    53628   75900      0    2.59e+01    0    1.89e+00
2005 09 15  2110    53628   76200      0    2.61e+01    0    2.12e+00
2005 09 15  2115    53628   76500      0    2.64e+01    0    1.98e+00
2005 09 15  2120    53628   76800      0    2.61e+01    0    1.99e+00
2005 09 15  2125    53628   77100      0    2.51e+01    0    2.23e+00
2005 09 15  2130    53628   77400      0    2.50e+01    0    2.04e+00
2005 09 15  2135    53628   77700      0    2.55e+01    0    2.01e+00
2005 09 15  2140    53628   78000      0    2.54e+01    0    1.98e+00
2005 09 15  2145    53628   78300      0    2.56e+01    0    2.22e+00
2005 09 15  2150    53628   78600      0    2.57e+01    0    2.03e+00
2005 09 15  2155    53628   78900      0    2.74e+01    0    2.27e+00
2005 09 15  2200    53628   79200      0    2.66e+01    0    1.93e+00
2005 09 15  2205    53628   79500      0    2.61e+01    0    2.07e+00
2005 09 15  2210    53628   79800      0    2.64e+01    0    2.19e+00
2005 09 15  2215    53628   80100      0    2.51e+01    0    2.04e+00
2005 09 15  2220    53628   80400      0    2.56e+01    0    2.11e+00
2005 09 15  2225    53628   80700      0    2.48e+01    0    1.99e+00
2005 09 15  2230    53628   81000      0    2.52e+01    0    2.08e+00
2005 09 15  2235    53628   81300      0    2.46e+01    0    1.84e+00
2005 09 15  2240    53628   81600      0    2.43e+01    0    1.95e+00
2005 09 15  2245    53628   81900      0    2.41e+01    0    2.09e+00
2005 09 15  2250    53628   82200      0    2.40e+01    0    1.95e+00
2005 09 15  2255    53628   82500      0    2.35e+01    0    2.10e+00
2005 09 15  2300    53628   82800      0    2.50e+01    0    2.05e+00
2005 09 15  2305    53628   83100      0    2.82e+01    0    2.26e+00
2005 09 15  2310    53628   83400      0    2.67e+01    0    2.14e+00
2005 09 15  2315    53628   83700      0    2.48e+01    0    2.01e+00
2005 09 15  2320    53628   84000      0    2.32e+01    0    1.95e+00
2005 09 15  2325    53628   84300      0    2.35e+01    0    1.93e+00
2005 09 15  2330    53628   84600      0    2.31e+01    0    1.91e+00
2005 09 15  2335    53628   84900      0    2.32e+01    0    2.00e+00
2005 09 15  2340    53628   85200      0    2.29e+01    0    1.89e+00
2005 09 15  2345    53628   85500      0    2.30e+01    0    1.89e+00
2005 09 15  2350    53628   85800      0    2.30e+01    0    2.08e+00
2005 09 15  2355    53628   86100      0    2.31e+01    0    1.92e+00
