:Data_list: 20061106_ace_sis_5m.txt
:Created: 2006 Nov 07 0011 UT
# Prepared by the U.S. Dept. of Commerce, NOAA, Space Environment Center.
# Please send comments and suggestions to SEC.Webmaster@noaa.gov 
# 
# Units: proton flux p/cs2-sec-ster
# Status(S): 0 = nominal data, 1 to 8 = bad data record, 9 = no data
# Missing data values: -1.00e+05
# Source: ACE Satellite - Solar Isotope Spectrometer
#
# 5-minute averaged Real-time Integral Flux of High-energy Solar Protons
# 
#                 Modified Seconds
# UT Date   Time   Julian  of the      ---- Integral Proton Flux ----
# YR MO DA  HHMM     Day     Day       S    > 10 MeV    S    > 30 MeV
#--------------------------------------------------------------------
2006 11 06  0000    54045       0      0    1.72e+00    0    1.20e+00
2006 11 06  0005    54045     300      0    1.71e+00    0    1.20e+00
2006 11 06  0010    54045     600      0    1.75e+00    0    1.22e+00
2006 11 06  0015    54045     900      0    1.69e+00    0    1.18e+00
2006 11 06  0020    54045    1200      0    1.71e+00    0    1.19e+00
2006 11 06  0025    54045    1500      0    1.72e+00    0    1.21e+00
2006 11 06  0030    54045    1800      0    1.70e+00    0    1.17e+00
2006 11 06  0035    54045    2100      0    1.67e+00    0    1.18e+00
2006 11 06  0040    54045    2400      0    1.70e+00    0    1.19e+00
2006 11 06  0045    54045    2700      0    1.70e+00    0    1.19e+00
2006 11 06  0050    54045    3000      0    1.68e+00    0    1.18e+00
2006 11 06  0055    54045    3300      0    1.70e+00    0    1.20e+00
2006 11 06  0100    54045    3600      0    1.70e+00    0    1.21e+00
2006 11 06  0105    54045    3900      0    1.72e+00    0    1.20e+00
2006 11 06  0110    54045    4200      0    1.70e+00    0    1.20e+00
2006 11 06  0115    54045    4500      0    1.69e+00    0    1.18e+00
2006 11 06  0120    54045    4800      0    1.70e+00    0    1.18e+00
2006 11 06  0125    54045    5100      0    1.71e+00    0    1.20e+00
2006 11 06  0130    54045    5400      0    1.69e+00    0    1.19e+00
2006 11 06  0135    54045    5700      0    1.69e+00    0    1.18e+00
2006 11 06  0140    54045    6000      0    1.75e+00    0    1.23e+00
2006 11 06  0145    54045    6300      0    1.73e+00    0    1.21e+00
2006 11 06  0150    54045    6600      0    1.69e+00    0    1.17e+00
2006 11 06  0155    54045    6900      0    1.69e+00    0    1.19e+00
2006 11 06  0200    54045    7200      0    1.73e+00    0    1.21e+00
2006 11 06  0205    54045    7500      0    1.68e+00    0    1.19e+00
2006 11 06  0210    54045    7800      0    1.67e+00    0    1.17e+00
2006 11 06  0215    54045    8100      0    1.70e+00    0    1.18e+00
2006 11 06  0220    54045    8400      0    1.70e+00    0    1.18e+00
2006 11 06  0225    54045    8700      0    1.72e+00    0    1.21e+00
2006 11 06  0230    54045    9000      0    1.70e+00    0    1.18e+00
2006 11 06  0235    54045    9300      0    1.71e+00    0    1.20e+00
2006 11 06  0240    54045    9600      0    1.69e+00    0    1.18e+00
2006 11 06  0245    54045    9900      0    1.72e+00    0    1.21e+00
2006 11 06  0250    54045   10200      0    1.66e+00    0    1.17e+00
2006 11 06  0255    54045   10500      0    1.70e+00    0    1.18e+00
2006 11 06  0300    54045   10800      0    1.70e+00    0    1.19e+00
2006 11 06  0305    54045   11100      0    1.72e+00    0    1.21e+00
2006 11 06  0310    54045   11400      0    1.66e+00    0    1.16e+00
2006 11 06  0315    54045   11700      0    1.68e+00    0    1.19e+00
2006 11 06  0320    54045   12000      0    1.75e+00    0    1.22e+00
2006 11 06  0325    54045   12300      0    1.72e+00    0    1.20e+00
2006 11 06  0330    54045   12600      0    1.74e+00    0    1.21e+00
2006 11 06  0335    54045   12900      0    1.67e+00    0    1.16e+00
2006 11 06  0340    54045   13200      0    1.69e+00    0    1.18e+00
2006 11 06  0345    54045   13500      0    1.67e+00    0    1.16e+00
2006 11 06  0350    54045   13800      0    1.73e+00    0    1.21e+00
2006 11 06  0355    54045   14100      0    1.70e+00    0    1.18e+00
2006 11 06  0400    54045   14400      0    1.70e+00    0    1.19e+00
2006 11 06  0405    54045   14700      0    1.74e+00    0    1.22e+00
2006 11 06  0410    54045   15000      0    1.66e+00    0    1.15e+00
2006 11 06  0415    54045   15300      0    1.73e+00    0    1.21e+00
2006 11 06  0420    54045   15600      0    1.66e+00    0    1.15e+00
2006 11 06  0425    54045   15900      0    1.66e+00    0    1.17e+00
2006 11 06  0430    54045   16200      0    1.71e+00    0    1.19e+00
2006 11 06  0435    54045   16500      0    1.71e+00    0    1.20e+00
2006 11 06  0440    54045   16800      0    1.68e+00    0    1.18e+00
2006 11 06  0445    54045   17100      0    1.71e+00    0    1.20e+00
2006 11 06  0450    54045   17400      0    1.68e+00    0    1.18e+00
2006 11 06  0455    54045   17700      0    1.67e+00    0    1.16e+00
2006 11 06  0500    54045   18000      0    1.73e+00    0    1.21e+00
2006 11 06  0505    54045   18300      0    1.69e+00    0    1.19e+00
2006 11 06  0510    54045   18600      0    1.67e+00    0    1.17e+00
2006 11 06  0515    54045   18900      0    1.63e+00    0    1.15e+00
2006 11 06  0520    54045   19200      0    1.72e+00    0    1.21e+00
2006 11 06  0525    54045   19500      0    1.68e+00    0    1.18e+00
2006 11 06  0530    54045   19800      0    1.68e+00    0    1.17e+00
2006 11 06  0535    54045   20100      0    1.69e+00    0    1.18e+00
2006 11 06  0540    54045   20400      0    1.72e+00    0    1.21e+00
2006 11 06  0545    54045   20700      0    1.70e+00    0    1.19e+00
2006 11 06  0550    54045   21000      0    1.70e+00    0    1.19e+00
2006 11 06  0555    54045   21300      0    1.71e+00    0    1.19e+00
2006 11 06  0600    54045   21600      0    1.71e+00    0    1.20e+00
2006 11 06  0605    54045   21900      0    1.71e+00    0    1.20e+00
2006 11 06  0610    54045   22200      0    1.71e+00    0    1.20e+00
2006 11 06  0615    54045   22500      0    1.67e+00    0    1.16e+00
2006 11 06  0620    54045   22800      0    1.73e+00    0    1.20e+00
2006 11 06  0625    54045   23100      0    1.72e+00    0    1.21e+00
2006 11 06  0630    54045   23400      0    1.69e+00    0    1.18e+00
2006 11 06  0635    54045   23700      0    1.73e+00    0    1.21e+00
2006 11 06  0640    54045   24000      0    1.72e+00    0    1.20e+00
2006 11 06  0645    54045   24300      0    1.70e+00    0    1.19e+00
2006 11 06  0650    54045   24600      0    1.71e+00    0    1.19e+00
2006 11 06  0655    54045   24900      0    1.73e+00    0    1.20e+00
2006 11 06  0700    54045   25200      0    1.72e+00    0    1.19e+00
2006 11 06  0705    54045   25500      0    1.74e+00    0    1.23e+00
2006 11 06  0710    54045   25800      0    1.70e+00    0    1.18e+00
2006 11 06  0715    54045   26100      0    1.75e+00    0    1.23e+00
2006 11 06  0720    54045   26400      0    1.69e+00    0    1.19e+00
2006 11 06  0725    54045   26700      0    1.69e+00    0    1.18e+00
2006 11 06  0730    54045   27000      0    1.71e+00    0    1.20e+00
2006 11 06  0735    54045   27300      0    1.72e+00    0    1.22e+00
2006 11 06  0740    54045   27600      0    1.69e+00    0    1.19e+00
2006 11 06  0745    54045   27900      0    1.69e+00    0    1.18e+00
2006 11 06  0750    54045   28200      0    1.74e+00    0    1.22e+00
2006 11 06  0755    54045   28500      0    1.70e+00    0    1.18e+00
2006 11 06  0800    54045   28800      0    1.69e+00    0    1.18e+00
2006 11 06  0805    54045   29100      0    1.70e+00    0    1.19e+00
2006 11 06  0810    54045   29400      0    1.71e+00    0    1.19e+00
2006 11 06  0815    54045   29700      0    1.70e+00    0    1.19e+00
2006 11 06  0820    54045   30000      0    1.73e+00    0    1.20e+00
2006 11 06  0825    54045   30300      0    1.72e+00    0    1.20e+00
2006 11 06  0830    54045   30600      0    1.69e+00    0    1.19e+00
2006 11 06  0835    54045   30900      0    1.66e+00    0    1.16e+00
2006 11 06  0840    54045   31200      0    1.69e+00    0    1.18e+00
2006 11 06  0845    54045   31500      0    1.71e+00    0    1.19e+00
2006 11 06  0850    54045   31800      0    1.75e+00    0    1.22e+00
2006 11 06  0855    54045   32100      0    1.71e+00    0    1.19e+00
2006 11 06  0900    54045   32400      0    1.68e+00    0    1.18e+00
2006 11 06  0905    54045   32700      0    1.71e+00    0    1.19e+00
2006 11 06  0910    54045   33000      0    1.70e+00    0    1.19e+00
2006 11 06  0915    54045   33300      0    1.72e+00    0    1.20e+00
2006 11 06  0920    54045   33600      0    1.75e+00    0    1.24e+00
2006 11 06  0925    54045   33900      0    1.70e+00    0    1.20e+00
2006 11 06  0930    54045   34200      0    1.71e+00    0    1.21e+00
2006 11 06  0935    54045   34500      0    1.72e+00    0    1.21e+00
2006 11 06  0940    54045   34800      0    1.70e+00    0    1.19e+00
2006 11 06  0945    54045   35100      0    1.73e+00    0    1.21e+00
2006 11 06  0950    54045   35400      0    1.76e+00    0    1.24e+00
2006 11 06  0955    54045   35700      0    1.72e+00    0    1.19e+00
2006 11 06  1000    54045   36000      0    1.74e+00    0    1.22e+00
2006 11 06  1005    54045   36300      0    1.71e+00    0    1.19e+00
2006 11 06  1010    54045   36600      0    1.71e+00    0    1.21e+00
2006 11 06  1015    54045   36900      0    1.75e+00    0    1.23e+00
2006 11 06  1020    54045   37200      0    1.65e+00    0    1.15e+00
2006 11 06  1025    54045   37500      0    1.71e+00    0    1.19e+00
2006 11 06  1030    54045   37800      0    1.72e+00    0    1.20e+00
2006 11 06  1035    54045   38100      0    1.70e+00    0    1.19e+00
2006 11 06  1040    54045   38400      0    1.76e+00    0    1.23e+00
2006 11 06  1045    54045   38700      0    1.74e+00    0    1.23e+00
2006 11 06  1050    54045   39000      0    1.73e+00    0    1.22e+00
2006 11 06  1055    54045   39300      0    1.72e+00    0    1.20e+00
2006 11 06  1100    54045   39600      0    1.72e+00    0    1.20e+00
2006 11 06  1105    54045   39900      0    1.72e+00    0    1.21e+00
2006 11 06  1110    54045   40200      0    1.69e+00    0    1.19e+00
2006 11 06  1115    54045   40500      0    1.70e+00    0    1.18e+00
2006 11 06  1120    54045   40800      0    1.70e+00    0    1.19e+00
2006 11 06  1125    54045   41100      0    1.73e+00    0    1.21e+00
2006 11 06  1130    54045   41400      0    1.71e+00    0    1.20e+00
2006 11 06  1135    54045   41700      0    1.73e+00    0    1.21e+00
2006 11 06  1140    54045   42000      0    1.76e+00    0    1.23e+00
2006 11 06  1145    54045   42300      0    1.72e+00    0    1.20e+00
2006 11 06  1150    54045   42600      0    1.71e+00    0    1.21e+00
2006 11 06  1155    54045   42900      0    1.71e+00    0    1.20e+00
2006 11 06  1200    54045   43200      0    1.69e+00    0    1.18e+00
2006 11 06  1205    54045   43500      0    1.74e+00    0    1.22e+00
2006 11 06  1210    54045   43800      0    1.71e+00    0    1.20e+00
2006 11 06  1215    54045   44100      0    1.67e+00    0    1.17e+00
2006 11 06  1220    54045   44400      0    1.71e+00    0    1.19e+00
2006 11 06  1225    54045   44700      0    1.68e+00    0    1.17e+00
2006 11 06  1230    54045   45000      0    1.69e+00    0    1.17e+00
2006 11 06  1235    54045   45300      0    1.69e+00    0    1.19e+00
2006 11 06  1240    54045   45600      0    1.71e+00    0    1.20e+00
2006 11 06  1245    54045   45900      0    1.71e+00    0    1.18e+00
2006 11 06  1250    54045   46200      0    1.74e+00    0    1.22e+00
2006 11 06  1255    54045   46500      0    1.75e+00    0    1.24e+00
2006 11 06  1300    54045   46800      0    1.73e+00    0    1.21e+00
2006 11 06  1305    54045   47100      0    1.70e+00    0    1.20e+00
2006 11 06  1310    54045   47400      0    1.72e+00    0    1.21e+00
2006 11 06  1315    54045   47700      0    1.71e+00    0    1.19e+00
2006 11 06  1320    54045   48000      0    1.68e+00    0    1.17e+00
2006 11 06  1325    54045   48300      0    1.71e+00    0    1.19e+00
2006 11 06  1330    54045   48600      0    1.75e+00    0    1.22e+00
2006 11 06  1335    54045   48900      0    1.68e+00    0    1.19e+00
2006 11 06  1340    54045   49200      0    1.68e+00    0    1.18e+00
2006 11 06  1345    54045   49500      0    1.71e+00    0    1.20e+00
2006 11 06  1350    54045   49800      0    1.71e+00    0    1.20e+00
2006 11 06  1355    54045   50100      0    1.70e+00    0    1.19e+00
2006 11 06  1400    54045   50400      0    1.70e+00    0    1.20e+00
2006 11 06  1405    54045   50700      0    1.70e+00    0    1.18e+00
2006 11 06  1410    54045   51000      0    1.69e+00    0    1.18e+00
2006 11 06  1415    54045   51300      0    1.72e+00    0    1.20e+00
2006 11 06  1420    54045   51600      0    1.73e+00    0    1.23e+00
2006 11 06  1425    54045   51900      0    1.73e+00    0    1.21e+00
2006 11 06  1430    54045   52200      0    1.70e+00    0    1.19e+00
2006 11 06  1435    54045   52500      0    1.71e+00    0    1.20e+00
2006 11 06  1440    54045   52800      0    1.68e+00    0    1.18e+00
2006 11 06  1445    54045   53100      0    1.72e+00    0    1.19e+00
2006 11 06  1450    54045   53400      0    1.73e+00    0    1.22e+00
2006 11 06  1455    54045   53700      0    1.71e+00    0    1.20e+00
2006 11 06  1500    54045   54000      0    1.72e+00    0    1.20e+00
2006 11 06  1505    54045   54300      0    1.68e+00    0    1.17e+00
2006 11 06  1510    54045   54600      0    1.73e+00    0    1.21e+00
2006 11 06  1515    54045   54900      0    1.70e+00    0    1.19e+00
2006 11 06  1520    54045   55200      0    1.76e+00    0    1.24e+00
2006 11 06  1525    54045   55500      0    1.73e+00    0    1.20e+00
2006 11 06  1530    54045   55800      0    1.69e+00    0    1.18e+00
2006 11 06  1535    54045   56100      0    1.75e+00    0    1.23e+00
2006 11 06  1540    54045   56400      0    1.69e+00    0    1.18e+00
2006 11 06  1545    54045   56700      0    1.73e+00    0    1.21e+00
2006 11 06  1550    54045   57000      0    1.73e+00    0    1.21e+00
2006 11 06  1555    54045   57300      0    1.69e+00    0    1.19e+00
2006 11 06  1600    54045   57600      0    1.71e+00    0    1.21e+00
2006 11 06  1605    54045   57900      0    1.70e+00    0    1.18e+00
2006 11 06  1610    54045   58200      0    1.69e+00    0    1.19e+00
2006 11 06  1615    54045   58500      0    1.70e+00    0    1.18e+00
2006 11 06  1620    54045   58800      0    1.74e+00    0    1.22e+00
2006 11 06  1625    54045   59100      0    1.73e+00    0    1.22e+00
2006 11 06  1630    54045   59400      0    1.73e+00    0    1.21e+00
2006 11 06  1635    54045   59700      0    1.71e+00    0    1.20e+00
2006 11 06  1640    54045   60000      0    1.75e+00    0    1.23e+00
2006 11 06  1645    54045   60300      0    1.76e+00    0    1.23e+00
2006 11 06  1650    54045   60600      0    1.68e+00    0    1.18e+00
2006 11 06  1655    54045   60900      0    1.73e+00    0    1.20e+00
2006 11 06  1700    54045   61200      0    1.70e+00    0    1.19e+00
2006 11 06  1705    54045   61500      0    1.71e+00    0    1.20e+00
2006 11 06  1710    54045   61800      0    1.70e+00    0    1.18e+00
2006 11 06  1715    54045   62100      0    1.71e+00    0    1.20e+00
2006 11 06  1720    54045   62400      0    1.71e+00    0    1.21e+00
2006 11 06  1725    54045   62700      0    1.68e+00    0    1.17e+00
2006 11 06  1730    54045   63000      0    1.74e+00    0    1.21e+00
2006 11 06  1735    54045   63300      0    1.71e+00    0    1.20e+00
2006 11 06  1740    54045   63600      0    1.74e+00    0    1.23e+00
2006 11 06  1745    54045   63900      0    1.70e+00    0    1.18e+00
2006 11 06  1750    54045   64200      0    1.71e+00    0    1.20e+00
2006 11 06  1755    54045   64500      0    1.72e+00    0    1.21e+00
2006 11 06  1800    54045   64800      0    1.74e+00    0    1.23e+00
2006 11 06  1805    54045   65100      0    1.72e+00    0    1.22e+00
2006 11 06  1810    54045   65400      0    1.72e+00    0    1.21e+00
2006 11 06  1815    54045   65700      0    1.65e+00    0    1.16e+00
2006 11 06  1820    54045   66000      9   -1.00e+05    9   -1.00e+05
2006 11 06  1825    54045   66300      9   -1.00e+05    9   -1.00e+05
2006 11 06  1830    54045   66600      9   -1.00e+05    9   -1.00e+05
2006 11 06  1835    54045   66900      9   -1.00e+05    9   -1.00e+05
2006 11 06  1840    54045   67200      0    1.69e+00    0    1.16e+00
2006 11 06  1845    54045   67500      0    1.73e+00    0    1.21e+00
2006 11 06  1850    54045   67800      0    1.72e+00    0    1.22e+00
2006 11 06  1855    54045   68100      0    1.74e+00    0    1.23e+00
2006 11 06  1900    54045   68400      0    1.71e+00    0    1.18e+00
2006 11 06  1905    54045   68700      0    1.73e+00    0    1.22e+00
2006 11 06  1910    54045   69000      0    1.69e+00    0    1.19e+00
2006 11 06  1915    54045   69300      0    1.71e+00    0    1.18e+00
2006 11 06  1920    54045   69600      0    1.74e+00    0    1.22e+00
2006 11 06  1925    54045   69900      0    1.77e+00    0    1.23e+00
2006 11 06  1930    54045   70200      0    1.73e+00    0    1.22e+00
2006 11 06  1935    54045   70500      0    1.67e+00    0    1.17e+00
2006 11 06  1940    54045   70800      0    1.77e+00    0    1.23e+00
2006 11 06  1945    54045   71100      0    1.78e+00    0    1.24e+00
2006 11 06  1950    54045   71400      0    1.78e+00    0    1.24e+00
2006 11 06  1955    54045   71700      0    1.71e+00    0    1.20e+00
2006 11 06  2000    54045   72000      0    1.74e+00    0    1.22e+00
2006 11 06  2005    54045   72300      0    1.74e+00    0    1.21e+00
2006 11 06  2010    54045   72600      0    1.79e+00    0    1.26e+00
2006 11 06  2015    54045   72900      0    1.76e+00    0    1.22e+00
2006 11 06  2020    54045   73200      0    1.82e+00    0    1.27e+00
2006 11 06  2025    54045   73500      0    1.74e+00    0    1.21e+00
2006 11 06  2030    54045   73800      0    1.74e+00    0    1.20e+00
2006 11 06  2035    54045   74100      0    1.77e+00    0    1.23e+00
2006 11 06  2040    54045   74400      0    1.79e+00    0    1.25e+00
2006 11 06  2045    54045   74700      0    1.77e+00    0    1.23e+00
2006 11 06  2050    54045   75000      0    1.80e+00    0    1.24e+00
2006 11 06  2055    54045   75300      0    1.77e+00    0    1.22e+00
2006 11 06  2100    54045   75600      9   -1.00e+05    9   -1.00e+05
2006 11 06  2105    54045   75900      9   -1.00e+05    9   -1.00e+05
2006 11 06  2110    54045   76200      9   -1.00e+05    9   -1.00e+05
2006 11 06  2115    54045   76500      9   -1.00e+05    9   -1.00e+05
2006 11 06  2120    54045   76800      9   -1.00e+05    9   -1.00e+05
2006 11 06  2125    54045   77100      0    1.79e+00    0    1.26e+00
2006 11 06  2130    54045   77400      0    1.77e+00    0    1.21e+00
2006 11 06  2135    54045   77700      0    1.81e+00    0    1.27e+00
2006 11 06  2140    54045   78000      0    1.76e+00    0    1.22e+00
2006 11 06  2145    54045   78300      0    1.79e+00    0    1.24e+00
2006 11 06  2150    54045   78600      0    1.78e+00    0    1.22e+00
2006 11 06  2155    54045   78900      0    1.79e+00    0    1.23e+00
2006 11 06  2200    54045   79200      0    1.78e+00    0    1.22e+00
2006 11 06  2205    54045   79500      0    1.77e+00    0    1.20e+00
2006 11 06  2210    54045   79800      0    1.79e+00    0    1.22e+00
2006 11 06  2215    54045   80100      0    1.82e+00    0    1.25e+00
2006 11 06  2220    54045   80400      0    1.82e+00    0    1.25e+00
2006 11 06  2225    54045   80700      0    1.81e+00    0    1.25e+00
2006 11 06  2230    54045   81000      0    1.77e+00    0    1.21e+00
2006 11 06  2235    54045   81300      0    1.78e+00    0    1.20e+00
2006 11 06  2240    54045   81600      0    1.81e+00    0    1.23e+00
2006 11 06  2245    54045   81900      0    1.82e+00    0    1.24e+00
2006 11 06  2250    54045   82200      0    1.84e+00    0    1.24e+00
2006 11 06  2255    54045   82500      0    1.77e+00    0    1.21e+00
2006 11 06  2300    54045   82800      0    1.81e+00    0    1.23e+00
2006 11 06  2305    54045   83100      0    1.80e+00    0    1.24e+00
2006 11 06  2310    54045   83400      0    1.84e+00    0    1.24e+00
2006 11 06  2315    54045   83700      0    1.78e+00    0    1.20e+00
2006 11 06  2320    54045   84000      0    1.84e+00    0    1.25e+00
2006 11 06  2325    54045   84300      0    1.83e+00    0    1.25e+00
2006 11 06  2330    54045   84600      0    1.80e+00    0    1.24e+00
2006 11 06  2335    54045   84900      0    1.82e+00    0    1.23e+00
2006 11 06  2340    54045   85200      0    1.80e+00    0    1.22e+00
2006 11 06  2345    54045   85500      0    1.81e+00    0    1.24e+00
2006 11 06  2350    54045   85800      0    1.79e+00    0    1.21e+00
2006 11 06  2355    54045   86100      0    1.80e+00    0    1.23e+00
