:Data_list: 20060429_ace_sis_5m.txt
:Created: 2006 Apr 30 0011 UT
# Prepared by the U.S. Dept. of Commerce, NOAA, Space Environment Center.
# Please send comments and suggestions to SEC.Webmaster@noaa.gov 
# 
# Units: proton flux p/cs2-sec-ster
# Status(S): 0 = nominal data, 1 to 8 = bad data record, 9 = no data
# Missing data values: -1.00e+05
# Source: ACE Satellite - Solar Isotope Spectrometer
#
# 5-minute averaged Real-time Integral Flux of High-energy Solar Protons
# 
#                 Modified Seconds
# UT Date   Time   Julian  of the      ---- Integral Proton Flux ----
# YR MO DA  HHMM     Day     Day       S    > 10 MeV    S    > 30 MeV
#--------------------------------------------------------------------
2006 04 29  0000    53854       0      0    1.57e+00    0    1.10e+00
2006 04 29  0005    53854     300      0    1.54e+00    0    1.09e+00
2006 04 29  0010    53854     600      0    1.56e+00    0    1.09e+00
2006 04 29  0015    53854     900      0    1.57e+00    0    1.09e+00
2006 04 29  0020    53854    1200      0    1.57e+00    0    1.10e+00
2006 04 29  0025    53854    1500      0    1.58e+00    0    1.11e+00
2006 04 29  0030    53854    1800      0    1.54e+00    0    1.07e+00
2006 04 29  0035    53854    2100      0    1.56e+00    0    1.10e+00
2006 04 29  0040    53854    2400      0    1.57e+00    0    1.12e+00
2006 04 29  0045    53854    2700      0    1.56e+00    0    1.09e+00
2006 04 29  0050    53854    3000      0    1.55e+00    0    1.09e+00
2006 04 29  0055    53854    3300      0    1.57e+00    0    1.10e+00
2006 04 29  0100    53854    3600      0    1.54e+00    0    1.07e+00
2006 04 29  0105    53854    3900      0    1.55e+00    0    1.09e+00
2006 04 29  0110    53854    4200      0    1.56e+00    0    1.10e+00
2006 04 29  0115    53854    4500      0    1.62e+00    0    1.13e+00
2006 04 29  0120    53854    4800      0    1.54e+00    0    1.07e+00
2006 04 29  0125    53854    5100      0    1.56e+00    0    1.10e+00
2006 04 29  0130    53854    5400      0    1.53e+00    0    1.08e+00
2006 04 29  0135    53854    5700      0    1.58e+00    0    1.10e+00
2006 04 29  0140    53854    6000      0    1.56e+00    0    1.08e+00
2006 04 29  0145    53854    6300      0    1.58e+00    0    1.13e+00
2006 04 29  0150    53854    6600      0    1.60e+00    0    1.12e+00
2006 04 29  0155    53854    6900      0    1.57e+00    0    1.10e+00
2006 04 29  0200    53854    7200      0    1.56e+00    0    1.08e+00
2006 04 29  0205    53854    7500      0    1.59e+00    0    1.11e+00
2006 04 29  0210    53854    7800      0    1.57e+00    0    1.11e+00
2006 04 29  0215    53854    8100      0    1.58e+00    0    1.11e+00
2006 04 29  0220    53854    8400      0    1.60e+00    0    1.12e+00
2006 04 29  0225    53854    8700      0    1.56e+00    0    1.10e+00
2006 04 29  0230    53854    9000      0    1.56e+00    0    1.09e+00
2006 04 29  0235    53854    9300      0    1.56e+00    0    1.09e+00
2006 04 29  0240    53854    9600      0    1.59e+00    0    1.11e+00
2006 04 29  0245    53854    9900      0    1.57e+00    0    1.09e+00
2006 04 29  0250    53854   10200      0    1.59e+00    0    1.11e+00
2006 04 29  0255    53854   10500      0    1.60e+00    0    1.13e+00
2006 04 29  0300    53854   10800      0    1.55e+00    0    1.08e+00
2006 04 29  0305    53854   11100      0    1.59e+00    0    1.11e+00
2006 04 29  0310    53854   11400      0    1.59e+00    0    1.13e+00
2006 04 29  0315    53854   11700      0    1.58e+00    0    1.12e+00
2006 04 29  0320    53854   12000      0    1.58e+00    0    1.13e+00
2006 04 29  0325    53854   12300      0    1.57e+00    0    1.11e+00
2006 04 29  0330    53854   12600      0    1.60e+00    0    1.11e+00
2006 04 29  0335    53854   12900      0    1.55e+00    0    1.09e+00
2006 04 29  0340    53854   13200      0    1.61e+00    0    1.14e+00
2006 04 29  0345    53854   13500      0    1.57e+00    0    1.10e+00
2006 04 29  0350    53854   13800      0    1.58e+00    0    1.11e+00
2006 04 29  0355    53854   14100      0    1.54e+00    0    1.09e+00
2006 04 29  0400    53854   14400      0    1.55e+00    0    1.09e+00
2006 04 29  0405    53854   14700      0    1.57e+00    0    1.11e+00
2006 04 29  0410    53854   15000      0    1.57e+00    0    1.11e+00
2006 04 29  0415    53854   15300      0    1.56e+00    0    1.10e+00
2006 04 29  0420    53854   15600      0    1.55e+00    0    1.09e+00
2006 04 29  0425    53854   15900      0    1.57e+00    0    1.10e+00
2006 04 29  0430    53854   16200      0    1.55e+00    0    1.08e+00
2006 04 29  0435    53854   16500      0    1.57e+00    0    1.10e+00
2006 04 29  0440    53854   16800      0    1.56e+00    0    1.08e+00
2006 04 29  0445    53854   17100      0    1.60e+00    0    1.12e+00
2006 04 29  0450    53854   17400      0    1.57e+00    0    1.10e+00
2006 04 29  0455    53854   17700      0    1.57e+00    0    1.09e+00
2006 04 29  0500    53854   18000      0    1.60e+00    0    1.12e+00
2006 04 29  0505    53854   18300      0    1.54e+00    0    1.07e+00
2006 04 29  0510    53854   18600      0    1.57e+00    0    1.10e+00
2006 04 29  0515    53854   18900      0    1.55e+00    0    1.08e+00
2006 04 29  0520    53854   19200      0    1.59e+00    0    1.11e+00
2006 04 29  0525    53854   19500      0    1.58e+00    0    1.11e+00
2006 04 29  0530    53854   19800      0    1.58e+00    0    1.11e+00
2006 04 29  0535    53854   20100      0    1.57e+00    0    1.10e+00
2006 04 29  0540    53854   20400      0    1.58e+00    0    1.11e+00
2006 04 29  0545    53854   20700      0    1.57e+00    0    1.11e+00
2006 04 29  0550    53854   21000      0    1.61e+00    0    1.13e+00
2006 04 29  0555    53854   21300      0    1.59e+00    0    1.11e+00
2006 04 29  0600    53854   21600      0    1.61e+00    0    1.14e+00
2006 04 29  0605    53854   21900      0    1.60e+00    0    1.12e+00
2006 04 29  0610    53854   22200      0    1.59e+00    0    1.12e+00
2006 04 29  0615    53854   22500      0    1.60e+00    0    1.14e+00
2006 04 29  0620    53854   22800      0    1.60e+00    0    1.12e+00
2006 04 29  0625    53854   23100      0    1.58e+00    0    1.11e+00
2006 04 29  0630    53854   23400      0    1.61e+00    0    1.13e+00
2006 04 29  0635    53854   23700      0    1.62e+00    0    1.12e+00
2006 04 29  0640    53854   24000      0    1.57e+00    0    1.10e+00
2006 04 29  0645    53854   24300      0    1.57e+00    0    1.10e+00
2006 04 29  0650    53854   24600      0    1.61e+00    0    1.13e+00
2006 04 29  0655    53854   24900      0    1.58e+00    0    1.12e+00
2006 04 29  0700    53854   25200      0    1.59e+00    0    1.11e+00
2006 04 29  0705    53854   25500      0    1.60e+00    0    1.13e+00
2006 04 29  0710    53854   25800      0    1.59e+00    0    1.11e+00
2006 04 29  0715    53854   26100      0    1.58e+00    0    1.11e+00
2006 04 29  0720    53854   26400      0    1.60e+00    0    1.12e+00
2006 04 29  0725    53854   26700      0    1.61e+00    0    1.14e+00
2006 04 29  0730    53854   27000      0    1.60e+00    0    1.11e+00
2006 04 29  0735    53854   27300      0    1.59e+00    0    1.11e+00
2006 04 29  0740    53854   27600      0    1.64e+00    0    1.15e+00
2006 04 29  0745    53854   27900      0    1.59e+00    0    1.10e+00
2006 04 29  0750    53854   28200      0    1.61e+00    0    1.12e+00
2006 04 29  0755    53854   28500      0    1.60e+00    0    1.12e+00
2006 04 29  0800    53854   28800      0    1.60e+00    0    1.13e+00
2006 04 29  0805    53854   29100      0    1.60e+00    0    1.13e+00
2006 04 29  0810    53854   29400      0    1.55e+00    0    1.08e+00
2006 04 29  0815    53854   29700      0    1.58e+00    0    1.10e+00
2006 04 29  0820    53854   30000      0    1.61e+00    0    1.12e+00
2006 04 29  0825    53854   30300      0    1.59e+00    0    1.11e+00
2006 04 29  0830    53854   30600      0    1.60e+00    0    1.13e+00
2006 04 29  0835    53854   30900      0    1.60e+00    0    1.12e+00
2006 04 29  0840    53854   31200      0    1.57e+00    0    1.10e+00
2006 04 29  0845    53854   31500      0    1.61e+00    0    1.12e+00
2006 04 29  0850    53854   31800      0    1.60e+00    0    1.14e+00
2006 04 29  0855    53854   32100      0    1.60e+00    0    1.11e+00
2006 04 29  0900    53854   32400      0    1.60e+00    0    1.12e+00
2006 04 29  0905    53854   32700      0    1.59e+00    0    1.12e+00
2006 04 29  0910    53854   33000      0    1.58e+00    0    1.12e+00
2006 04 29  0915    53854   33300      0    1.60e+00    0    1.11e+00
2006 04 29  0920    53854   33600      0    1.57e+00    0    1.11e+00
2006 04 29  0925    53854   33900      0    1.60e+00    0    1.13e+00
2006 04 29  0930    53854   34200      0    1.56e+00    0    1.09e+00
2006 04 29  0935    53854   34500      0    1.56e+00    0    1.08e+00
2006 04 29  0940    53854   34800      0    1.59e+00    0    1.12e+00
2006 04 29  0945    53854   35100      0    1.63e+00    0    1.14e+00
2006 04 29  0950    53854   35400      0    1.58e+00    0    1.11e+00
2006 04 29  0955    53854   35700      0    1.59e+00    0    1.12e+00
2006 04 29  1000    53854   36000      0    1.58e+00    0    1.11e+00
2006 04 29  1005    53854   36300      0    1.64e+00    0    1.14e+00
2006 04 29  1010    53854   36600      0    1.61e+00    0    1.13e+00
2006 04 29  1015    53854   36900      0    1.57e+00    0    1.11e+00
2006 04 29  1020    53854   37200      0    1.62e+00    0    1.14e+00
2006 04 29  1025    53854   37500      0    1.59e+00    0    1.10e+00
2006 04 29  1030    53854   37800      0    1.59e+00    0    1.12e+00
2006 04 29  1035    53854   38100      0    1.59e+00    0    1.12e+00
2006 04 29  1040    53854   38400      0    1.60e+00    0    1.12e+00
2006 04 29  1045    53854   38700      0    1.63e+00    0    1.14e+00
2006 04 29  1050    53854   39000      0    1.61e+00    0    1.12e+00
2006 04 29  1055    53854   39300      0    1.60e+00    0    1.12e+00
2006 04 29  1100    53854   39600      0    1.61e+00    0    1.12e+00
2006 04 29  1105    53854   39900      0    1.61e+00    0    1.11e+00
2006 04 29  1110    53854   40200      0    1.59e+00    0    1.11e+00
2006 04 29  1115    53854   40500      0    1.60e+00    0    1.12e+00
2006 04 29  1120    53854   40800      0    1.61e+00    0    1.13e+00
2006 04 29  1125    53854   41100      0    1.59e+00    0    1.11e+00
2006 04 29  1130    53854   41400      0    1.60e+00    0    1.11e+00
2006 04 29  1135    53854   41700      0    1.60e+00    0    1.12e+00
2006 04 29  1140    53854   42000      0    1.58e+00    0    1.10e+00
2006 04 29  1145    53854   42300      0    1.63e+00    0    1.15e+00
2006 04 29  1150    53854   42600      0    1.63e+00    0    1.15e+00
2006 04 29  1155    53854   42900      0    1.59e+00    0    1.11e+00
2006 04 29  1200    53854   43200      0    1.57e+00    0    1.10e+00
2006 04 29  1205    53854   43500      0    1.68e+00    0    1.18e+00
2006 04 29  1210    53854   43800      0    1.61e+00    0    1.12e+00
2006 04 29  1215    53854   44100      0    1.59e+00    0    1.12e+00
2006 04 29  1220    53854   44400      0    1.57e+00    0    1.10e+00
2006 04 29  1225    53854   44700      0    1.64e+00    0    1.15e+00
2006 04 29  1230    53854   45000      0    1.62e+00    0    1.15e+00
2006 04 29  1235    53854   45300      0    1.57e+00    0    1.09e+00
2006 04 29  1240    53854   45600      0    1.60e+00    0    1.12e+00
2006 04 29  1245    53854   45900      0    1.60e+00    0    1.12e+00
2006 04 29  1250    53854   46200      0    1.58e+00    0    1.12e+00
2006 04 29  1255    53854   46500      0    1.58e+00    0    1.12e+00
2006 04 29  1300    53854   46800      0    1.60e+00    0    1.11e+00
2006 04 29  1305    53854   47100      0    1.58e+00    0    1.11e+00
2006 04 29  1310    53854   47400      0    1.60e+00    0    1.11e+00
2006 04 29  1315    53854   47700      0    1.64e+00    0    1.15e+00
2006 04 29  1320    53854   48000      0    1.67e+00    0    1.18e+00
2006 04 29  1325    53854   48300      0    1.63e+00    0    1.14e+00
2006 04 29  1330    53854   48600      0    1.58e+00    0    1.11e+00
2006 04 29  1335    53854   48900      0    1.61e+00    0    1.13e+00
2006 04 29  1340    53854   49200      0    1.60e+00    0    1.12e+00
2006 04 29  1345    53854   49500      0    1.59e+00    0    1.12e+00
2006 04 29  1350    53854   49800      0    1.61e+00    0    1.13e+00
2006 04 29  1355    53854   50100      0    1.59e+00    0    1.11e+00
2006 04 29  1400    53854   50400      0    1.60e+00    0    1.12e+00
2006 04 29  1405    53854   50700      0    1.59e+00    0    1.12e+00
2006 04 29  1410    53854   51000      0    1.61e+00    0    1.13e+00
2006 04 29  1415    53854   51300      0    1.57e+00    0    1.10e+00
2006 04 29  1420    53854   51600      0    1.60e+00    0    1.12e+00
2006 04 29  1425    53854   51900      0    1.62e+00    0    1.15e+00
2006 04 29  1430    53854   52200      0    1.60e+00    0    1.11e+00
2006 04 29  1435    53854   52500      0    1.59e+00    0    1.13e+00
2006 04 29  1440    53854   52800      0    1.56e+00    0    1.10e+00
2006 04 29  1445    53854   53100      0    1.56e+00    0    1.10e+00
2006 04 29  1450    53854   53400      0    1.58e+00    0    1.10e+00
2006 04 29  1455    53854   53700      0    1.58e+00    0    1.11e+00
2006 04 29  1500    53854   54000      0    1.62e+00    0    1.12e+00
2006 04 29  1505    53854   54300      0    1.60e+00    0    1.12e+00
2006 04 29  1510    53854   54600      0    1.58e+00    0    1.12e+00
2006 04 29  1515    53854   54900      0    1.58e+00    0    1.10e+00
2006 04 29  1520    53854   55200      0    1.61e+00    0    1.13e+00
2006 04 29  1525    53854   55500      0    1.62e+00    0    1.14e+00
2006 04 29  1530    53854   55800      0    1.62e+00    0    1.14e+00
2006 04 29  1535    53854   56100      0    1.59e+00    0    1.11e+00
2006 04 29  1540    53854   56400      0    1.65e+00    0    1.15e+00
2006 04 29  1545    53854   56700      0    1.62e+00    0    1.14e+00
2006 04 29  1550    53854   57000      0    1.57e+00    0    1.10e+00
2006 04 29  1555    53854   57300      0    1.64e+00    0    1.13e+00
2006 04 29  1600    53854   57600      0    1.59e+00    0    1.12e+00
2006 04 29  1605    53854   57900      0    1.52e+00    0    1.05e+00
2006 04 29  1610    53854   58200      0    1.60e+00    0    1.14e+00
2006 04 29  1615    53854   58500      0    1.58e+00    0    1.11e+00
2006 04 29  1620    53854   58800      0    1.65e+00    0    1.16e+00
2006 04 29  1625    53854   59100      0    1.62e+00    0    1.14e+00
2006 04 29  1630    53854   59400      0    1.58e+00    0    1.10e+00
2006 04 29  1635    53854   59700      0    1.62e+00    0    1.13e+00
2006 04 29  1640    53854   60000      0    1.61e+00    0    1.13e+00
2006 04 29  1645    53854   60300      0    1.61e+00    0    1.12e+00
2006 04 29  1650    53854   60600      0    1.59e+00    0    1.13e+00
2006 04 29  1655    53854   60900      0    1.64e+00    0    1.17e+00
2006 04 29  1700    53854   61200      0    1.62e+00    0    1.13e+00
2006 04 29  1705    53854   61500      0    1.63e+00    0    1.14e+00
2006 04 29  1710    53854   61800      0    1.62e+00    0    1.14e+00
2006 04 29  1715    53854   62100      0    1.60e+00    0    1.12e+00
2006 04 29  1720    53854   62400      0    1.62e+00    0    1.14e+00
2006 04 29  1725    53854   62700      0    1.60e+00    0    1.13e+00
2006 04 29  1730    53854   63000      0    1.58e+00    0    1.11e+00
2006 04 29  1735    53854   63300      0    1.60e+00    0    1.12e+00
2006 04 29  1740    53854   63600      0    1.63e+00    0    1.13e+00
2006 04 29  1745    53854   63900      0    1.61e+00    0    1.14e+00
2006 04 29  1750    53854   64200      0    1.62e+00    0    1.15e+00
2006 04 29  1755    53854   64500      0    1.57e+00    0    1.10e+00
2006 04 29  1800    53854   64800      0    1.58e+00    0    1.11e+00
2006 04 29  1805    53854   65100      0    1.62e+00    0    1.13e+00
2006 04 29  1810    53854   65400      0    1.63e+00    0    1.13e+00
2006 04 29  1815    53854   65700      0    1.59e+00    0    1.11e+00
2006 04 29  1820    53854   66000      0    1.64e+00    0    1.16e+00
2006 04 29  1825    53854   66300      0    1.63e+00    0    1.16e+00
2006 04 29  1830    53854   66600      0    1.60e+00    0    1.11e+00
2006 04 29  1835    53854   66900      0    1.60e+00    0    1.12e+00
2006 04 29  1840    53854   67200      0    1.59e+00    0    1.12e+00
2006 04 29  1845    53854   67500      0    1.56e+00    0    1.08e+00
2006 04 29  1850    53854   67800      0    1.60e+00    0    1.13e+00
2006 04 29  1855    53854   68100      0    1.58e+00    0    1.11e+00
2006 04 29  1900    53854   68400      0    1.63e+00    0    1.15e+00
2006 04 29  1905    53854   68700      0    1.63e+00    0    1.12e+00
2006 04 29  1910    53854   69000      0    1.63e+00    0    1.15e+00
2006 04 29  1915    53854   69300      0    1.60e+00    0    1.13e+00
2006 04 29  1920    53854   69600      0    1.60e+00    0    1.13e+00
2006 04 29  1925    53854   69900      0    1.55e+00    0    1.08e+00
2006 04 29  1930    53854   70200      0    1.62e+00    0    1.13e+00
2006 04 29  1935    53854   70500      0    1.61e+00    0    1.13e+00
2006 04 29  1940    53854   70800      0    1.61e+00    0    1.13e+00
2006 04 29  1945    53854   71100      0    1.58e+00    0    1.10e+00
2006 04 29  1950    53854   71400      0    1.61e+00    0    1.12e+00
2006 04 29  1955    53854   71700      0    1.63e+00    0    1.13e+00
2006 04 29  2000    53854   72000      0    1.60e+00    0    1.12e+00
2006 04 29  2005    53854   72300      0    1.62e+00    0    1.13e+00
2006 04 29  2010    53854   72600      0    1.61e+00    0    1.13e+00
2006 04 29  2015    53854   72900      0    1.60e+00    0    1.11e+00
2006 04 29  2020    53854   73200      0    1.61e+00    0    1.13e+00
2006 04 29  2025    53854   73500      0    1.62e+00    0    1.15e+00
2006 04 29  2030    53854   73800      0    1.59e+00    0    1.11e+00
2006 04 29  2035    53854   74100      0    1.62e+00    0    1.14e+00
2006 04 29  2040    53854   74400      0    1.57e+00    0    1.09e+00
2006 04 29  2045    53854   74700      0    1.59e+00    0    1.11e+00
2006 04 29  2050    53854   75000      0    1.58e+00    0    1.11e+00
2006 04 29  2055    53854   75300      0    1.61e+00    0    1.14e+00
2006 04 29  2100    53854   75600      0    1.64e+00    0    1.15e+00
2006 04 29  2105    53854   75900      0    1.62e+00    0    1.13e+00
2006 04 29  2110    53854   76200      0    1.60e+00    0    1.11e+00
2006 04 29  2115    53854   76500      0    1.61e+00    0    1.14e+00
2006 04 29  2120    53854   76800      0    1.56e+00    0    1.09e+00
2006 04 29  2125    53854   77100      0    1.61e+00    0    1.13e+00
2006 04 29  2130    53854   77400      0    1.59e+00    0    1.11e+00
2006 04 29  2135    53854   77700      0    1.64e+00    0    1.16e+00
2006 04 29  2140    53854   78000      0    1.59e+00    0    1.12e+00
2006 04 29  2145    53854   78300      0    1.59e+00    0    1.10e+00
2006 04 29  2150    53854   78600      0    1.56e+00    0    1.09e+00
2006 04 29  2155    53854   78900      0    1.59e+00    0    1.12e+00
2006 04 29  2200    53854   79200      0    1.58e+00    0    1.12e+00
2006 04 29  2205    53854   79500      0    1.60e+00    0    1.13e+00
2006 04 29  2210    53854   79800      0    1.60e+00    0    1.12e+00
2006 04 29  2215    53854   80100      0    1.60e+00    0    1.13e+00
2006 04 29  2220    53854   80400      0    1.63e+00    0    1.16e+00
2006 04 29  2225    53854   80700      0    1.60e+00    0    1.12e+00
2006 04 29  2230    53854   81000      0    1.57e+00    0    1.10e+00
2006 04 29  2235    53854   81300      0    1.60e+00    0    1.12e+00
2006 04 29  2240    53854   81600      0    1.59e+00    0    1.13e+00
2006 04 29  2245    53854   81900      0    1.59e+00    0    1.11e+00
2006 04 29  2250    53854   82200      0    1.63e+00    0    1.13e+00
2006 04 29  2255    53854   82500      0    1.61e+00    0    1.13e+00
2006 04 29  2300    53854   82800      0    1.59e+00    0    1.13e+00
2006 04 29  2305    53854   83100      0    1.61e+00    0    1.12e+00
2006 04 29  2310    53854   83400      0    1.60e+00    0    1.12e+00
2006 04 29  2315    53854   83700      0    1.58e+00    0    1.11e+00
2006 04 29  2320    53854   84000      0    1.57e+00    0    1.11e+00
2006 04 29  2325    53854   84300      0    1.60e+00    0    1.12e+00
2006 04 29  2330    53854   84600      0    1.57e+00    0    1.10e+00
2006 04 29  2335    53854   84900      0    1.60e+00    0    1.12e+00
2006 04 29  2340    53854   85200      0    1.59e+00    0    1.11e+00
2006 04 29  2345    53854   85500      0    1.57e+00    0    1.10e+00
2006 04 29  2350    53854   85800      0    1.59e+00    0    1.11e+00
2006 04 29  2355    53854   86100      0    1.58e+00    0    1.11e+00
