:Data_list: 20060924_ace_sis_5m.txt
:Created: 2006 Sep 25 0011 UT
# Prepared by the U.S. Dept. of Commerce, NOAA, Space Environment Center.
# Please send comments and suggestions to SEC.Webmaster@noaa.gov 
# 
# Units: proton flux p/cs2-sec-ster
# Status(S): 0 = nominal data, 1 to 8 = bad data record, 9 = no data
# Missing data values: -1.00e+05
# Source: ACE Satellite - Solar Isotope Spectrometer
#
# 5-minute averaged Real-time Integral Flux of High-energy Solar Protons
# 
#                 Modified Seconds
# UT Date   Time   Julian  of the      ---- Integral Proton Flux ----
# YR MO DA  HHMM     Day     Day       S    > 10 MeV    S    > 30 MeV
#--------------------------------------------------------------------
2006 09 24  0000    54002       0      0    1.69e+00    0    1.20e+00
2006 09 24  0005    54002     300      0    1.73e+00    0    1.21e+00
2006 09 24  0010    54002     600      0    1.71e+00    0    1.19e+00
2006 09 24  0015    54002     900      0    1.69e+00    0    1.19e+00
2006 09 24  0020    54002    1200      0    1.72e+00    0    1.22e+00
2006 09 24  0025    54002    1500      0    1.69e+00    0    1.19e+00
2006 09 24  0030    54002    1800      0    1.67e+00    0    1.16e+00
2006 09 24  0035    54002    2100      0    1.68e+00    0    1.16e+00
2006 09 24  0040    54002    2400      0    1.70e+00    0    1.20e+00
2006 09 24  0045    54002    2700      0    1.70e+00    0    1.19e+00
2006 09 24  0050    54002    3000      0    1.70e+00    0    1.19e+00
2006 09 24  0055    54002    3300      0    1.69e+00    0    1.18e+00
2006 09 24  0100    54002    3600      0    1.70e+00    0    1.20e+00
2006 09 24  0105    54002    3900      0    1.70e+00    0    1.19e+00
2006 09 24  0110    54002    4200      0    1.71e+00    0    1.21e+00
2006 09 24  0115    54002    4500      0    1.70e+00    0    1.17e+00
2006 09 24  0120    54002    4800      0    1.65e+00    0    1.14e+00
2006 09 24  0125    54002    5100      0    1.71e+00    0    1.20e+00
2006 09 24  0130    54002    5400      0    1.71e+00    0    1.21e+00
2006 09 24  0135    54002    5700      0    1.72e+00    0    1.20e+00
2006 09 24  0140    54002    6000      0    1.68e+00    0    1.18e+00
2006 09 24  0145    54002    6300      0    1.70e+00    0    1.19e+00
2006 09 24  0150    54002    6600      0    1.68e+00    0    1.19e+00
2006 09 24  0155    54002    6900      0    1.70e+00    0    1.18e+00
2006 09 24  0200    54002    7200      0    1.66e+00    0    1.16e+00
2006 09 24  0205    54002    7500      0    1.69e+00    0    1.20e+00
2006 09 24  0210    54002    7800      0    1.70e+00    0    1.20e+00
2006 09 24  0215    54002    8100      0    1.70e+00    0    1.19e+00
2006 09 24  0220    54002    8400      0    1.68e+00    0    1.17e+00
2006 09 24  0225    54002    8700      0    1.68e+00    0    1.18e+00
2006 09 24  0230    54002    9000      0    1.68e+00    0    1.19e+00
2006 09 24  0235    54002    9300      0    1.71e+00    0    1.19e+00
2006 09 24  0240    54002    9600      0    1.70e+00    0    1.19e+00
2006 09 24  0245    54002    9900      0    1.71e+00    0    1.22e+00
2006 09 24  0250    54002   10200      0    1.68e+00    0    1.18e+00
2006 09 24  0255    54002   10500      0    1.69e+00    0    1.19e+00
2006 09 24  0300    54002   10800      0    1.66e+00    0    1.18e+00
2006 09 24  0305    54002   11100      0    1.67e+00    0    1.18e+00
2006 09 24  0310    54002   11400      0    1.72e+00    0    1.20e+00
2006 09 24  0315    54002   11700      0    1.70e+00    0    1.20e+00
2006 09 24  0320    54002   12000      0    1.68e+00    0    1.17e+00
2006 09 24  0325    54002   12300      0    1.64e+00    0    1.15e+00
2006 09 24  0330    54002   12600      0    1.64e+00    0    1.15e+00
2006 09 24  0335    54002   12900      0    1.68e+00    0    1.17e+00
2006 09 24  0340    54002   13200      0    1.67e+00    0    1.17e+00
2006 09 24  0345    54002   13500      0    1.66e+00    0    1.17e+00
2006 09 24  0350    54002   13800      0    1.67e+00    0    1.18e+00
2006 09 24  0355    54002   14100      0    1.68e+00    0    1.19e+00
2006 09 24  0400    54002   14400      0    1.67e+00    0    1.18e+00
2006 09 24  0405    54002   14700      0    1.67e+00    0    1.15e+00
2006 09 24  0410    54002   15000      0    1.67e+00    0    1.16e+00
2006 09 24  0415    54002   15300      0    1.68e+00    0    1.17e+00
2006 09 24  0420    54002   15600      0    1.69e+00    0    1.20e+00
2006 09 24  0425    54002   15900      0    1.68e+00    0    1.17e+00
2006 09 24  0430    54002   16200      0    1.68e+00    0    1.19e+00
2006 09 24  0435    54002   16500      0    1.68e+00    0    1.19e+00
2006 09 24  0440    54002   16800      0    1.66e+00    0    1.16e+00
2006 09 24  0445    54002   17100      0    1.65e+00    0    1.16e+00
2006 09 24  0450    54002   17400      0    1.68e+00    0    1.19e+00
2006 09 24  0455    54002   17700      0    1.65e+00    0    1.16e+00
2006 09 24  0500    54002   18000      0    1.59e+00    0    1.12e+00
2006 09 24  0505    54002   18300      0    1.68e+00    0    1.19e+00
2006 09 24  0510    54002   18600      9   -1.00e+05    9   -1.00e+05
2006 09 24  0515    54002   18900      9   -1.00e+05    9   -1.00e+05
2006 09 24  0520    54002   19200      9   -1.00e+05    9   -1.00e+05
2006 09 24  0525    54002   19500      9   -1.00e+05    9   -1.00e+05
2006 09 24  0530    54002   19800      9   -1.00e+05    9   -1.00e+05
2006 09 24  0535    54002   20100      9   -1.00e+05    9   -1.00e+05
2006 09 24  0540    54002   20400      9   -1.00e+05    9   -1.00e+05
2006 09 24  0545    54002   20700      9   -1.00e+05    9   -1.00e+05
2006 09 24  0550    54002   21000      9   -1.00e+05    9   -1.00e+05
2006 09 24  0555    54002   21300      9   -1.00e+05    9   -1.00e+05
2006 09 24  0600    54002   21600      9   -1.00e+05    9   -1.00e+05
2006 09 24  0605    54002   21900      9   -1.00e+05    9   -1.00e+05
2006 09 24  0610    54002   22200      9   -1.00e+05    9   -1.00e+05
2006 09 24  0615    54002   22500      0    1.71e+00    0    1.21e+00
2006 09 24  0620    54002   22800      0    1.67e+00    0    1.16e+00
2006 09 24  0625    54002   23100      0    1.61e+00    0    1.13e+00
2006 09 24  0630    54002   23400      0    1.67e+00    0    1.17e+00
2006 09 24  0635    54002   23700      0    1.64e+00    0    1.15e+00
2006 09 24  0640    54002   24000      0    1.67e+00    0    1.17e+00
2006 09 24  0645    54002   24300      0    1.63e+00    0    1.14e+00
2006 09 24  0650    54002   24600      0    1.68e+00    0    1.19e+00
2006 09 24  0655    54002   24900      0    1.65e+00    0    1.16e+00
2006 09 24  0700    54002   25200      0    1.67e+00    0    1.17e+00
2006 09 24  0705    54002   25500      0    1.68e+00    0    1.18e+00
2006 09 24  0710    54002   25800      0    1.62e+00    0    1.13e+00
2006 09 24  0715    54002   26100      0    1.63e+00    0    1.16e+00
2006 09 24  0720    54002   26400      0    1.65e+00    0    1.16e+00
2006 09 24  0725    54002   26700      0    1.62e+00    0    1.15e+00
2006 09 24  0730    54002   27000      0    1.64e+00    0    1.15e+00
2006 09 24  0735    54002   27300      0    1.68e+00    0    1.18e+00
2006 09 24  0740    54002   27600      0    1.65e+00    0    1.17e+00
2006 09 24  0745    54002   27900      0    1.64e+00    0    1.15e+00
2006 09 24  0750    54002   28200      0    1.67e+00    0    1.17e+00
2006 09 24  0755    54002   28500      0    1.63e+00    0    1.14e+00
2006 09 24  0800    54002   28800      0    1.65e+00    0    1.15e+00
2006 09 24  0805    54002   29100      0    1.65e+00    0    1.16e+00
2006 09 24  0810    54002   29400      0    1.65e+00    0    1.16e+00
2006 09 24  0815    54002   29700      0    1.65e+00    0    1.16e+00
2006 09 24  0820    54002   30000      0    1.67e+00    0    1.17e+00
2006 09 24  0825    54002   30300      0    1.64e+00    0    1.15e+00
2006 09 24  0830    54002   30600      0    1.65e+00    0    1.15e+00
2006 09 24  0835    54002   30900      0    1.65e+00    0    1.16e+00
2006 09 24  0840    54002   31200      0    1.55e+00    0    1.09e+00
2006 09 24  0845    54002   31500      0    1.61e+00    0    1.13e+00
2006 09 24  0850    54002   31800      0    1.68e+00    0    1.18e+00
2006 09 24  0855    54002   32100      0    1.64e+00    0    1.15e+00
2006 09 24  0900    54002   32400      0    1.63e+00    0    1.15e+00
2006 09 24  0905    54002   32700      0    1.59e+00    0    1.11e+00
2006 09 24  0910    54002   33000      0    1.64e+00    0    1.15e+00
2006 09 24  0915    54002   33300      0    1.65e+00    0    1.17e+00
2006 09 24  0920    54002   33600      0    1.63e+00    0    1.13e+00
2006 09 24  0925    54002   33900      0    1.65e+00    0    1.14e+00
2006 09 24  0930    54002   34200      0    1.65e+00    0    1.15e+00
2006 09 24  0935    54002   34500      0    1.63e+00    0    1.14e+00
2006 09 24  0940    54002   34800      0    1.61e+00    0    1.13e+00
2006 09 24  0945    54002   35100      0    1.62e+00    0    1.15e+00
2006 09 24  0950    54002   35400      0    1.65e+00    0    1.16e+00
2006 09 24  0955    54002   35700      0    1.62e+00    0    1.14e+00
2006 09 24  1000    54002   36000      0    1.65e+00    0    1.16e+00
2006 09 24  1005    54002   36300      0    1.65e+00    0    1.17e+00
2006 09 24  1010    54002   36600      0    1.66e+00    0    1.16e+00
2006 09 24  1015    54002   36900      0    1.62e+00    0    1.13e+00
2006 09 24  1020    54002   37200      0    1.65e+00    0    1.16e+00
2006 09 24  1025    54002   37500      0    1.64e+00    0    1.15e+00
2006 09 24  1030    54002   37800      0    1.63e+00    0    1.15e+00
2006 09 24  1035    54002   38100      0    1.64e+00    0    1.14e+00
2006 09 24  1040    54002   38400      0    1.63e+00    0    1.15e+00
2006 09 24  1045    54002   38700      0    1.61e+00    0    1.13e+00
2006 09 24  1050    54002   39000      0    1.63e+00    0    1.14e+00
2006 09 24  1055    54002   39300      0    1.64e+00    0    1.15e+00
2006 09 24  1100    54002   39600      0    1.64e+00    0    1.15e+00
2006 09 24  1105    54002   39900      0    1.67e+00    0    1.17e+00
2006 09 24  1110    54002   40200      0    1.65e+00    0    1.17e+00
2006 09 24  1115    54002   40500      0    1.65e+00    0    1.16e+00
2006 09 24  1120    54002   40800      0    1.64e+00    0    1.14e+00
2006 09 24  1125    54002   41100      0    1.64e+00    0    1.14e+00
2006 09 24  1130    54002   41400      0    1.61e+00    0    1.15e+00
2006 09 24  1135    54002   41700      0    1.67e+00    0    1.18e+00
2006 09 24  1140    54002   42000      0    1.61e+00    0    1.12e+00
2006 09 24  1145    54002   42300      0    1.63e+00    0    1.14e+00
2006 09 24  1150    54002   42600      0    1.64e+00    0    1.16e+00
2006 09 24  1155    54002   42900      0    1.65e+00    0    1.16e+00
2006 09 24  1200    54002   43200      0    1.68e+00    0    1.17e+00
2006 09 24  1205    54002   43500      0    1.66e+00    0    1.17e+00
2006 09 24  1210    54002   43800      0    1.64e+00    0    1.15e+00
2006 09 24  1215    54002   44100      0    1.64e+00    0    1.13e+00
2006 09 24  1220    54002   44400      0    1.67e+00    0    1.17e+00
2006 09 24  1225    54002   44700      0    1.65e+00    0    1.16e+00
2006 09 24  1230    54002   45000      0    1.65e+00    0    1.14e+00
2006 09 24  1235    54002   45300      0    1.71e+00    0    1.21e+00
2006 09 24  1240    54002   45600      0    1.66e+00    0    1.15e+00
2006 09 24  1245    54002   45900      0    1.66e+00    0    1.17e+00
2006 09 24  1250    54002   46200      0    1.65e+00    0    1.16e+00
2006 09 24  1255    54002   46500      0    1.62e+00    0    1.13e+00
2006 09 24  1300    54002   46800      0    1.66e+00    0    1.17e+00
2006 09 24  1305    54002   47100      0    1.65e+00    0    1.15e+00
2006 09 24  1310    54002   47400      0    1.63e+00    0    1.14e+00
2006 09 24  1315    54002   47700      0    1.67e+00    0    1.17e+00
2006 09 24  1320    54002   48000      0    1.67e+00    0    1.19e+00
2006 09 24  1325    54002   48300      0    1.66e+00    0    1.16e+00
2006 09 24  1330    54002   48600      0    1.65e+00    0    1.17e+00
2006 09 24  1335    54002   48900      0    1.62e+00    0    1.13e+00
2006 09 24  1340    54002   49200      0    1.65e+00    0    1.15e+00
2006 09 24  1345    54002   49500      0    1.64e+00    0    1.15e+00
2006 09 24  1350    54002   49800      0    1.65e+00    0    1.15e+00
2006 09 24  1355    54002   50100      0    1.63e+00    0    1.15e+00
2006 09 24  1400    54002   50400      0    1.63e+00    0    1.16e+00
2006 09 24  1405    54002   50700      0    1.64e+00    0    1.14e+00
2006 09 24  1410    54002   51000      0    1.67e+00    0    1.18e+00
2006 09 24  1415    54002   51300      0    1.66e+00    0    1.17e+00
2006 09 24  1420    54002   51600      0    1.67e+00    0    1.18e+00
2006 09 24  1425    54002   51900      0    1.64e+00    0    1.16e+00
2006 09 24  1430    54002   52200      0    1.62e+00    0    1.14e+00
2006 09 24  1435    54002   52500      0    1.65e+00    0    1.14e+00
2006 09 24  1440    54002   52800      0    1.62e+00    0    1.14e+00
2006 09 24  1445    54002   53100      0    1.68e+00    0    1.18e+00
2006 09 24  1450    54002   53400      0    1.67e+00    0    1.18e+00
2006 09 24  1455    54002   53700      0    1.66e+00    0    1.17e+00
2006 09 24  1500    54002   54000      0    1.66e+00    0    1.15e+00
2006 09 24  1505    54002   54300      0    1.63e+00    0    1.14e+00
2006 09 24  1510    54002   54600      0    1.66e+00    0    1.17e+00
2006 09 24  1515    54002   54900      0    1.67e+00    0    1.17e+00
2006 09 24  1520    54002   55200      0    1.64e+00    0    1.16e+00
2006 09 24  1525    54002   55500      0    1.65e+00    0    1.15e+00
2006 09 24  1530    54002   55800      0    1.65e+00    0    1.15e+00
2006 09 24  1535    54002   56100      0    1.68e+00    0    1.18e+00
2006 09 24  1540    54002   56400      0    1.67e+00    0    1.18e+00
2006 09 24  1545    54002   56700      0    1.66e+00    0    1.18e+00
2006 09 24  1550    54002   57000      0    1.68e+00    0    1.18e+00
2006 09 24  1555    54002   57300      0    1.66e+00    0    1.16e+00
2006 09 24  1600    54002   57600      0    2.04e+00    0    1.48e+00
2006 09 24  1605    54002   57900      0    1.66e+00    0    1.16e+00
2006 09 24  1610    54002   58200      0    1.64e+00    0    1.15e+00
2006 09 24  1615    54002   58500      0    1.66e+00    0    1.15e+00
2006 09 24  1620    54002   58800      0    1.64e+00    0    1.15e+00
2006 09 24  1625    54002   59100      0    1.64e+00    0    1.15e+00
2006 09 24  1630    54002   59400      0    1.65e+00    0    1.15e+00
2006 09 24  1635    54002   59700      0    1.67e+00    0    1.17e+00
2006 09 24  1640    54002   60000      0    1.66e+00    0    1.16e+00
2006 09 24  1645    54002   60300      0    1.65e+00    0    1.15e+00
2006 09 24  1650    54002   60600      0    1.67e+00    0    1.17e+00
2006 09 24  1655    54002   60900      0    1.65e+00    0    1.16e+00
2006 09 24  1700    54002   61200      0    1.66e+00    0    1.16e+00
2006 09 24  1705    54002   61500      0    1.65e+00    0    1.17e+00
2006 09 24  1710    54002   61800      0    1.66e+00    0    1.16e+00
2006 09 24  1715    54002   62100      0    1.67e+00    0    1.18e+00
2006 09 24  1720    54002   62400      0    1.63e+00    0    1.13e+00
2006 09 24  1725    54002   62700      0    1.63e+00    0    1.14e+00
2006 09 24  1730    54002   63000      0    1.65e+00    0    1.16e+00
2006 09 24  1735    54002   63300      0    1.65e+00    0    1.16e+00
2006 09 24  1740    54002   63600      0    1.64e+00    0    1.14e+00
2006 09 24  1745    54002   63900      0    1.64e+00    0    1.15e+00
2006 09 24  1750    54002   64200      0    1.62e+00    0    1.13e+00
2006 09 24  1755    54002   64500      0    1.68e+00    0    1.18e+00
2006 09 24  1800    54002   64800      0    1.63e+00    0    1.14e+00
2006 09 24  1805    54002   65100      0    1.66e+00    0    1.16e+00
2006 09 24  1810    54002   65400      0    1.63e+00    0    1.14e+00
2006 09 24  1815    54002   65700      0    1.65e+00    0    1.16e+00
2006 09 24  1820    54002   66000      0    1.66e+00    0    1.16e+00
2006 09 24  1825    54002   66300      0    1.63e+00    0    1.14e+00
2006 09 24  1830    54002   66600      0    1.65e+00    0    1.13e+00
2006 09 24  1835    54002   66900      0    1.68e+00    0    1.18e+00
2006 09 24  1840    54002   67200      0    1.62e+00    0    1.15e+00
2006 09 24  1845    54002   67500      0    1.65e+00    0    1.16e+00
2006 09 24  1850    54002   67800      0    1.67e+00    0    1.17e+00
2006 09 24  1855    54002   68100      0    1.67e+00    0    1.17e+00
2006 09 24  1900    54002   68400      0    1.60e+00    0    1.13e+00
2006 09 24  1905    54002   68700      0    1.62e+00    0    1.14e+00
2006 09 24  1910    54002   69000      0    1.65e+00    0    1.16e+00
2006 09 24  1915    54002   69300      0    1.62e+00    0    1.13e+00
2006 09 24  1920    54002   69600      0    1.65e+00    0    1.16e+00
2006 09 24  1925    54002   69900      0    1.63e+00    0    1.14e+00
2006 09 24  1930    54002   70200      0    1.62e+00    0    1.14e+00
2006 09 24  1935    54002   70500      0    1.64e+00    0    1.16e+00
2006 09 24  1940    54002   70800      0    1.60e+00    0    1.12e+00
2006 09 24  1945    54002   71100      0    1.65e+00    0    1.15e+00
2006 09 24  1950    54002   71400      0    1.66e+00    0    1.15e+00
2006 09 24  1955    54002   71700      0    1.67e+00    0    1.17e+00
2006 09 24  2000    54002   72000      0    1.67e+00    0    1.17e+00
2006 09 24  2005    54002   72300      0    1.64e+00    0    1.14e+00
2006 09 24  2010    54002   72600      0    1.66e+00    0    1.17e+00
2006 09 24  2015    54002   72900      0    1.62e+00    0    1.14e+00
2006 09 24  2020    54002   73200      0    1.67e+00    0    1.17e+00
2006 09 24  2025    54002   73500      0    1.61e+00    0    1.14e+00
2006 09 24  2030    54002   73800      0    1.63e+00    0    1.14e+00
2006 09 24  2035    54002   74100      0    1.62e+00    0    1.14e+00
2006 09 24  2040    54002   74400      0    1.64e+00    0    1.15e+00
2006 09 24  2045    54002   74700      0    1.68e+00    0    1.18e+00
2006 09 24  2050    54002   75000      0    1.61e+00    0    1.14e+00
2006 09 24  2055    54002   75300      0    1.66e+00    0    1.16e+00
2006 09 24  2100    54002   75600      0    1.63e+00    0    1.13e+00
2006 09 24  2105    54002   75900      0    1.66e+00    0    1.15e+00
2006 09 24  2110    54002   76200      0    1.65e+00    0    1.16e+00
2006 09 24  2115    54002   76500      0    1.67e+00    0    1.19e+00
2006 09 24  2120    54002   76800      0    1.69e+00    0    1.18e+00
2006 09 24  2125    54002   77100      0    1.66e+00    0    1.16e+00
2006 09 24  2130    54002   77400      0    1.62e+00    0    1.13e+00
2006 09 24  2135    54002   77700      0    1.60e+00    0    1.12e+00
2006 09 24  2140    54002   78000      0    1.66e+00    0    1.16e+00
2006 09 24  2145    54002   78300      0    1.60e+00    0    1.12e+00
2006 09 24  2150    54002   78600      0    1.63e+00    0    1.14e+00
2006 09 24  2155    54002   78900      0    1.64e+00    0    1.15e+00
2006 09 24  2200    54002   79200      0    1.63e+00    0    1.14e+00
2006 09 24  2205    54002   79500      0    1.61e+00    0    1.14e+00
2006 09 24  2210    54002   79800      0    1.68e+00    0    1.16e+00
2006 09 24  2215    54002   80100      0    1.61e+00    0    1.13e+00
2006 09 24  2220    54002   80400      0    1.65e+00    0    1.14e+00
2006 09 24  2225    54002   80700      0    1.64e+00    0    1.14e+00
2006 09 24  2230    54002   81000      0    1.63e+00    0    1.14e+00
2006 09 24  2235    54002   81300      0    1.63e+00    0    1.14e+00
2006 09 24  2240    54002   81600      0    1.66e+00    0    1.17e+00
2006 09 24  2245    54002   81900      0    1.63e+00    0    1.15e+00
2006 09 24  2250    54002   82200      0    1.64e+00    0    1.16e+00
2006 09 24  2255    54002   82500      0    1.67e+00    0    1.17e+00
2006 09 24  2300    54002   82800      0    1.62e+00    0    1.13e+00
2006 09 24  2305    54002   83100      0    1.64e+00    0    1.16e+00
2006 09 24  2310    54002   83400      0    1.66e+00    0    1.16e+00
2006 09 24  2315    54002   83700      0    1.63e+00    0    1.14e+00
2006 09 24  2320    54002   84000      0    1.64e+00    0    1.14e+00
2006 09 24  2325    54002   84300      0    1.67e+00    0    1.17e+00
2006 09 24  2330    54002   84600      0    1.64e+00    0    1.16e+00
2006 09 24  2335    54002   84900      0    1.65e+00    0    1.16e+00
2006 09 24  2340    54002   85200      0    1.63e+00    0    1.14e+00
2006 09 24  2345    54002   85500      0    1.63e+00    0    1.14e+00
2006 09 24  2350    54002   85800      0    1.66e+00    0    1.16e+00
2006 09 24  2355    54002   86100      0    1.64e+00    0    1.16e+00
