:Data_list: 20061219_ace_sis_5m.txt
:Created: 2006 Dec 20 0011 UT
# Prepared by the U.S. Dept. of Commerce, NOAA, Space Environment Center.
# Please send comments and suggestions to SEC.Webmaster@noaa.gov 
# 
# Units: proton flux p/cs2-sec-ster
# Status(S): 0 = nominal data, 1 to 8 = bad data record, 9 = no data
# Missing data values: -1.00e+05
# Source: ACE Satellite - Solar Isotope Spectrometer
#
# 5-minute averaged Real-time Integral Flux of High-energy Solar Protons
# 
#                 Modified Seconds
# UT Date   Time   Julian  of the      ---- Integral Proton Flux ----
# YR MO DA  HHMM     Day     Day       S    > 10 MeV    S    > 30 MeV
#--------------------------------------------------------------------
2006 12 19  0000    54088       0      0    2.59e+00    0    1.60e+00
2006 12 19  0005    54088     300      0    2.58e+00    0    1.60e+00
2006 12 19  0010    54088     600      0    2.58e+00    0    1.59e+00
2006 12 19  0015    54088     900      0    2.58e+00    0    1.59e+00
2006 12 19  0020    54088    1200      0    2.56e+00    0    1.57e+00
2006 12 19  0025    54088    1500      0    2.52e+00    0    1.56e+00
2006 12 19  0030    54088    1800      0    2.55e+00    0    1.54e+00
2006 12 19  0035    54088    2100      0    2.60e+00    0    1.62e+00
2006 12 19  0040    54088    2400      0    2.58e+00    0    1.58e+00
2006 12 19  0045    54088    2700      0    2.55e+00    0    1.57e+00
2006 12 19  0050    54088    3000      0    2.56e+00    0    1.59e+00
2006 12 19  0055    54088    3300      0    2.53e+00    0    1.58e+00
2006 12 19  0100    54088    3600      0    2.44e+00    0    1.49e+00
2006 12 19  0105    54088    3900      0    2.45e+00    0    1.50e+00
2006 12 19  0110    54088    4200      0    2.57e+00    0    1.59e+00
2006 12 19  0115    54088    4500      0    2.52e+00    0    1.55e+00
2006 12 19  0120    54088    4800      0    2.53e+00    0    1.58e+00
2006 12 19  0125    54088    5100      0    2.50e+00    0    1.53e+00
2006 12 19  0130    54088    5400      0    2.46e+00    0    1.51e+00
2006 12 19  0135    54088    5700      0    2.49e+00    0    1.55e+00
2006 12 19  0140    54088    6000      0    2.55e+00    0    1.57e+00
2006 12 19  0145    54088    6300      0    2.58e+00    0    1.58e+00
2006 12 19  0150    54088    6600      0    2.51e+00    0    1.53e+00
2006 12 19  0155    54088    6900      0    2.55e+00    0    1.60e+00
2006 12 19  0200    54088    7200      0    2.53e+00    0    1.54e+00
2006 12 19  0205    54088    7500      0    2.51e+00    0    1.57e+00
2006 12 19  0210    54088    7800      0    2.49e+00    0    1.53e+00
2006 12 19  0215    54088    8100      0    2.52e+00    0    1.55e+00
2006 12 19  0220    54088    8400      0    2.59e+00    0    1.58e+00
2006 12 19  0225    54088    8700      0    2.57e+00    0    1.59e+00
2006 12 19  0230    54088    9000      0    2.49e+00    0    1.54e+00
2006 12 19  0235    54088    9300      0    2.51e+00    0    1.55e+00
2006 12 19  0240    54088    9600      0    2.48e+00    0    1.56e+00
2006 12 19  0245    54088    9900      0    2.43e+00    0    1.52e+00
2006 12 19  0250    54088   10200      0    2.51e+00    0    1.56e+00
2006 12 19  0255    54088   10500      0    2.52e+00    0    1.58e+00
2006 12 19  0300    54088   10800      0    2.51e+00    0    1.54e+00
2006 12 19  0305    54088   11100      0    2.54e+00    0    1.59e+00
2006 12 19  0310    54088   11400      0    2.51e+00    0    1.57e+00
2006 12 19  0315    54088   11700      0    2.49e+00    0    1.56e+00
2006 12 19  0320    54088   12000      0    2.42e+00    0    1.53e+00
2006 12 19  0325    54088   12300      0    2.55e+00    0    1.59e+00
2006 12 19  0330    54088   12600      0    2.50e+00    0    1.56e+00
2006 12 19  0335    54088   12900      0    2.51e+00    0    1.57e+00
2006 12 19  0340    54088   13200      0    2.46e+00    0    1.52e+00
2006 12 19  0345    54088   13500      0    2.44e+00    0    1.51e+00
2006 12 19  0350    54088   13800      0    2.40e+00    0    1.49e+00
2006 12 19  0355    54088   14100      0    2.45e+00    0    1.54e+00
2006 12 19  0400    54088   14400      0    2.47e+00    0    1.54e+00
2006 12 19  0405    54088   14700      0    2.48e+00    0    1.54e+00
2006 12 19  0410    54088   15000      0    2.51e+00    0    1.56e+00
2006 12 19  0415    54088   15300      0    2.48e+00    0    1.54e+00
2006 12 19  0420    54088   15600      0    2.44e+00    0    1.52e+00
2006 12 19  0425    54088   15900      0    2.47e+00    0    1.54e+00
2006 12 19  0430    54088   16200      0    2.43e+00    0    1.50e+00
2006 12 19  0435    54088   16500      0    2.58e+00    0    1.63e+00
2006 12 19  0440    54088   16800      0    2.59e+00    0    1.63e+00
2006 12 19  0445    54088   17100      0    2.57e+00    0    1.60e+00
2006 12 19  0450    54088   17400      0    2.52e+00    0    1.57e+00
2006 12 19  0455    54088   17700      0    2.46e+00    0    1.54e+00
2006 12 19  0500    54088   18000      0    2.43e+00    0    1.49e+00
2006 12 19  0505    54088   18300      0    2.52e+00    0    1.57e+00
2006 12 19  0510    54088   18600      0    2.61e+00    0    1.62e+00
2006 12 19  0515    54088   18900      0    2.37e+00    0    1.46e+00
2006 12 19  0520    54088   19200      0    2.52e+00    0    1.55e+00
2006 12 19  0525    54088   19500      0    2.52e+00    0    1.57e+00
2006 12 19  0530    54088   19800      0    2.49e+00    0    1.59e+00
2006 12 19  0535    54088   20100      0    2.48e+00    0    1.55e+00
2006 12 19  0540    54088   20400      0    2.59e+00    0    1.59e+00
2006 12 19  0545    54088   20700      0    2.56e+00    0    1.58e+00
2006 12 19  0550    54088   21000      0    2.55e+00    0    1.60e+00
2006 12 19  0555    54088   21300      0    2.57e+00    0    1.61e+00
2006 12 19  0600    54088   21600      0    2.53e+00    0    1.58e+00
2006 12 19  0605    54088   21900      0    2.53e+00    0    1.55e+00
2006 12 19  0610    54088   22200      0    2.46e+00    0    1.52e+00
2006 12 19  0615    54088   22500      0    2.60e+00    0    1.63e+00
2006 12 19  0620    54088   22800      0    2.55e+00    0    1.59e+00
2006 12 19  0625    54088   23100      0    2.48e+00    0    1.56e+00
2006 12 19  0630    54088   23400      0    2.52e+00    0    1.55e+00
2006 12 19  0635    54088   23700      0    2.51e+00    0    1.59e+00
2006 12 19  0640    54088   24000      0    2.45e+00    0    1.52e+00
2006 12 19  0645    54088   24300      0    2.42e+00    0    1.52e+00
2006 12 19  0650    54088   24600      0    2.57e+00    0    1.60e+00
2006 12 19  0655    54088   24900      0    2.59e+00    0    1.63e+00
2006 12 19  0700    54088   25200      9   -1.00e+05    9   -1.00e+05
2006 12 19  0705    54088   25500      0    2.52e+00    0    1.60e+00
2006 12 19  0710    54088   25800      0    2.47e+00    0    1.56e+00
2006 12 19  0715    54088   26100      0    2.47e+00    0    1.55e+00
2006 12 19  0720    54088   26400      0    2.46e+00    0    1.54e+00
2006 12 19  0725    54088   26700      0    2.53e+00    0    1.55e+00
2006 12 19  0730    54088   27000      0    2.54e+00    0    1.59e+00
2006 12 19  0735    54088   27300      0    2.52e+00    0    1.59e+00
2006 12 19  0740    54088   27600      0    2.45e+00    0    1.53e+00
2006 12 19  0745    54088   27900      0    2.51e+00    0    1.56e+00
2006 12 19  0750    54088   28200      0    2.46e+00    0    1.54e+00
2006 12 19  0755    54088   28500      0    2.50e+00    0    1.59e+00
2006 12 19  0800    54088   28800      0    2.56e+00    0    1.60e+00
2006 12 19  0805    54088   29100      0    2.50e+00    0    1.58e+00
2006 12 19  0810    54088   29400      0    2.55e+00    0    1.60e+00
2006 12 19  0815    54088   29700      0    2.50e+00    0    1.58e+00
2006 12 19  0820    54088   30000      0    2.46e+00    0    1.55e+00
2006 12 19  0825    54088   30300      0    2.44e+00    0    1.54e+00
2006 12 19  0830    54088   30600      0    2.48e+00    0    1.56e+00
2006 12 19  0835    54088   30900      0    2.56e+00    0    1.61e+00
2006 12 19  0840    54088   31200      0    2.56e+00    0    1.63e+00
2006 12 19  0845    54088   31500      0    2.53e+00    0    1.60e+00
2006 12 19  0850    54088   31800      0    2.47e+00    0    1.54e+00
2006 12 19  0855    54088   32100      0    2.48e+00    0    1.56e+00
2006 12 19  0900    54088   32400      0    2.49e+00    0    1.55e+00
2006 12 19  0905    54088   32700      0    2.54e+00    0    1.61e+00
2006 12 19  0910    54088   33000      0    2.53e+00    0    1.57e+00
2006 12 19  0915    54088   33300      0    2.55e+00    0    1.60e+00
2006 12 19  0920    54088   33600      0    2.51e+00    0    1.58e+00
2006 12 19  0925    54088   33900      0    2.47e+00    0    1.56e+00
2006 12 19  0930    54088   34200      0    2.50e+00    0    1.58e+00
2006 12 19  0935    54088   34500      0    2.44e+00    0    1.56e+00
2006 12 19  0940    54088   34800      0    2.48e+00    0    1.58e+00
2006 12 19  0945    54088   35100      0    2.58e+00    0    1.62e+00
2006 12 19  0950    54088   35400      0    2.47e+00    0    1.55e+00
2006 12 19  0955    54088   35700      0    2.47e+00    0    1.54e+00
2006 12 19  1000    54088   36000      0    2.51e+00    0    1.58e+00
2006 12 19  1005    54088   36300      0    2.41e+00    0    1.53e+00
2006 12 19  1010    54088   36600      0    2.41e+00    0    1.53e+00
2006 12 19  1015    54088   36900      0    2.54e+00    0    1.63e+00
2006 12 19  1020    54088   37200      0    2.45e+00    0    1.54e+00
2006 12 19  1025    54088   37500      0    2.49e+00    0    1.57e+00
2006 12 19  1030    54088   37800      0    2.47e+00    0    1.57e+00
2006 12 19  1035    54088   38100      0    2.48e+00    0    1.55e+00
2006 12 19  1040    54088   38400      0    2.44e+00    0    1.54e+00
2006 12 19  1045    54088   38700      0    2.48e+00    0    1.58e+00
2006 12 19  1050    54088   39000      0    2.48e+00    0    1.55e+00
2006 12 19  1055    54088   39300      0    2.52e+00    0    1.62e+00
2006 12 19  1100    54088   39600      0    2.50e+00    0    1.59e+00
2006 12 19  1105    54088   39900      0    2.50e+00    0    1.59e+00
2006 12 19  1110    54088   40200      0    2.51e+00    0    1.59e+00
2006 12 19  1115    54088   40500      0    2.40e+00    0    1.52e+00
2006 12 19  1120    54088   40800      0    2.50e+00    0    1.59e+00
2006 12 19  1125    54088   41100      0    2.44e+00    0    1.55e+00
2006 12 19  1130    54088   41400      0    2.52e+00    0    1.61e+00
2006 12 19  1135    54088   41700      0    2.52e+00    0    1.60e+00
2006 12 19  1140    54088   42000      0    2.44e+00    0    1.54e+00
2006 12 19  1145    54088   42300      0    2.45e+00    0    1.55e+00
2006 12 19  1150    54088   42600      0    2.42e+00    0    1.53e+00
2006 12 19  1155    54088   42900      0    2.50e+00    0    1.58e+00
2006 12 19  1200    54088   43200      0    2.56e+00    0    1.61e+00
2006 12 19  1205    54088   43500      0    2.52e+00    0    1.59e+00
2006 12 19  1210    54088   43800      0    2.51e+00    0    1.59e+00
2006 12 19  1215    54088   44100      0    2.46e+00    0    1.55e+00
2006 12 19  1220    54088   44400      0    2.48e+00    0    1.59e+00
2006 12 19  1225    54088   44700      0    2.47e+00    0    1.59e+00
2006 12 19  1230    54088   45000      0    2.51e+00    0    1.59e+00
2006 12 19  1235    54088   45300      0    2.51e+00    0    1.60e+00
2006 12 19  1240    54088   45600      0    2.53e+00    0    1.61e+00
2006 12 19  1245    54088   45900      0    2.41e+00    0    1.52e+00
2006 12 19  1250    54088   46200      0    2.44e+00    0    1.56e+00
2006 12 19  1255    54088   46500      0    2.42e+00    0    1.54e+00
2006 12 19  1300    54088   46800      0    2.36e+00    0    1.50e+00
2006 12 19  1305    54088   47100      0    2.51e+00    0    1.59e+00
2006 12 19  1310    54088   47400      0    2.47e+00    0    1.59e+00
2006 12 19  1315    54088   47700      0    2.49e+00    0    1.57e+00
2006 12 19  1320    54088   48000      0    2.55e+00    0    1.62e+00
2006 12 19  1325    54088   48300      0    2.48e+00    0    1.57e+00
2006 12 19  1330    54088   48600      0    2.39e+00    0    1.50e+00
2006 12 19  1335    54088   48900      0    2.48e+00    0    1.56e+00
2006 12 19  1340    54088   49200      0    2.47e+00    0    1.58e+00
2006 12 19  1345    54088   49500      0    2.49e+00    0    1.59e+00
2006 12 19  1350    54088   49800      0    2.44e+00    0    1.55e+00
2006 12 19  1355    54088   50100      0    2.45e+00    0    1.56e+00
2006 12 19  1400    54088   50400      0    2.45e+00    0    1.57e+00
2006 12 19  1405    54088   50700      0    2.41e+00    0    1.55e+00
2006 12 19  1410    54088   51000      0    2.43e+00    0    1.54e+00
2006 12 19  1415    54088   51300      0    2.51e+00    0    1.61e+00
2006 12 19  1420    54088   51600      0    2.47e+00    0    1.58e+00
2006 12 19  1425    54088   51900      0    2.52e+00    0    1.60e+00
2006 12 19  1430    54088   52200      0    2.42e+00    0    1.55e+00
2006 12 19  1435    54088   52500      0    2.40e+00    0    1.55e+00
2006 12 19  1440    54088   52800      0    2.42e+00    0    1.54e+00
2006 12 19  1445    54088   53100      0    2.49e+00    0    1.57e+00
2006 12 19  1450    54088   53400      0    2.49e+00    0    1.58e+00
2006 12 19  1455    54088   53700      0    2.52e+00    0    1.62e+00
2006 12 19  1500    54088   54000      0    2.51e+00    0    1.61e+00
2006 12 19  1505    54088   54300      0    2.43e+00    0    1.56e+00
2006 12 19  1510    54088   54600      0    2.45e+00    0    1.57e+00
2006 12 19  1515    54088   54900      0    2.30e+00    0    1.49e+00
2006 12 19  1520    54088   55200      0    2.51e+00    0    1.62e+00
2006 12 19  1525    54088   55500      0    2.50e+00    0    1.60e+00
2006 12 19  1530    54088   55800      0    2.55e+00    0    1.64e+00
2006 12 19  1535    54088   56100      0    2.52e+00    0    1.63e+00
2006 12 19  1540    54088   56400      0    2.40e+00    0    1.55e+00
2006 12 19  1545    54088   56700      0    2.43e+00    0    1.56e+00
2006 12 19  1550    54088   57000      0    2.41e+00    0    1.55e+00
2006 12 19  1555    54088   57300      0    2.52e+00    0    1.61e+00
2006 12 19  1600    54088   57600      0    2.54e+00    0    1.63e+00
2006 12 19  1605    54088   57900      0    2.51e+00    0    1.61e+00
2006 12 19  1610    54088   58200      0    2.54e+00    0    1.62e+00
2006 12 19  1615    54088   58500      0    2.48e+00    0    1.57e+00
2006 12 19  1620    54088   58800      0    2.46e+00    0    1.56e+00
2006 12 19  1625    54088   59100      0    2.46e+00    0    1.56e+00
2006 12 19  1630    54088   59400      0    2.52e+00    0    1.58e+00
2006 12 19  1635    54088   59700      0    2.57e+00    0    1.65e+00
2006 12 19  1640    54088   60000      0    2.47e+00    0    1.59e+00
2006 12 19  1645    54088   60300      0    2.46e+00    0    1.56e+00
2006 12 19  1650    54088   60600      0    2.54e+00    0    1.63e+00
2006 12 19  1655    54088   60900      0    2.41e+00    0    1.54e+00
2006 12 19  1700    54088   61200      0    2.44e+00    0    1.58e+00
2006 12 19  1705    54088   61500      0    2.48e+00    0    1.58e+00
2006 12 19  1710    54088   61800      0    2.52e+00    0    1.63e+00
2006 12 19  1715    54088   62100      0    2.44e+00    0    1.58e+00
2006 12 19  1720    54088   62400      0    2.46e+00    0    1.57e+00
2006 12 19  1725    54088   62700      0    2.48e+00    0    1.60e+00
2006 12 19  1730    54088   63000      0    2.45e+00    0    1.59e+00
2006 12 19  1735    54088   63300      0    2.41e+00    0    1.56e+00
2006 12 19  1740    54088   63600      0    2.52e+00    0    1.63e+00
2006 12 19  1745    54088   63900      0    2.47e+00    0    1.60e+00
2006 12 19  1750    54088   64200      0    2.44e+00    0    1.57e+00
2006 12 19  1755    54088   64500      0    2.46e+00    0    1.62e+00
2006 12 19  1800    54088   64800      0    2.42e+00    0    1.58e+00
2006 12 19  1805    54088   65100      0    2.40e+00    0    1.58e+00
2006 12 19  1810    54088   65400      0    2.45e+00    0    1.59e+00
2006 12 19  1815    54088   65700      0    2.49e+00    0    1.61e+00
2006 12 19  1820    54088   66000      0    2.51e+00    0    1.65e+00
2006 12 19  1825    54088   66300      0    2.50e+00    0    1.61e+00
2006 12 19  1830    54088   66600      0    2.42e+00    0    1.57e+00
2006 12 19  1835    54088   66900      0    2.42e+00    0    1.55e+00
2006 12 19  1840    54088   67200      0    2.42e+00    0    1.56e+00
2006 12 19  1845    54088   67500      0    2.50e+00    0    1.62e+00
2006 12 19  1850    54088   67800      0    2.50e+00    0    1.63e+00
2006 12 19  1855    54088   68100      0    2.50e+00    0    1.62e+00
2006 12 19  1900    54088   68400      0    2.43e+00    0    1.55e+00
2006 12 19  1905    54088   68700      0    2.44e+00    0    1.56e+00
2006 12 19  1910    54088   69000      0    2.41e+00    0    1.56e+00
2006 12 19  1915    54088   69300      0    2.40e+00    0    1.53e+00
2006 12 19  1920    54088   69600      0    2.52e+00    0    1.62e+00
2006 12 19  1925    54088   69900      0    2.47e+00    0    1.59e+00
2006 12 19  1930    54088   70200      0    2.51e+00    0    1.61e+00
2006 12 19  1935    54088   70500      0    2.47e+00    0    1.61e+00
2006 12 19  1940    54088   70800      0    2.41e+00    0    1.54e+00
2006 12 19  1945    54088   71100      0    2.42e+00    0    1.57e+00
2006 12 19  1950    54088   71400      0    2.41e+00    0    1.56e+00
2006 12 19  1955    54088   71700      0    2.49e+00    0    1.61e+00
2006 12 19  2000    54088   72000      0    2.50e+00    0    1.64e+00
2006 12 19  2005    54088   72300      0    2.45e+00    0    1.58e+00
2006 12 19  2010    54088   72600      0    2.42e+00    0    1.57e+00
2006 12 19  2015    54088   72900      0    2.46e+00    0    1.59e+00
2006 12 19  2020    54088   73200      0    2.45e+00    0    1.60e+00
2006 12 19  2025    54088   73500      0    2.42e+00    0    1.57e+00
2006 12 19  2030    54088   73800      0    2.50e+00    0    1.62e+00
2006 12 19  2035    54088   74100      0    2.44e+00    0    1.56e+00
2006 12 19  2040    54088   74400      0    2.51e+00    0    1.64e+00
2006 12 19  2045    54088   74700      0    2.49e+00    0    1.61e+00
2006 12 19  2050    54088   75000      0    2.39e+00    0    1.56e+00
2006 12 19  2055    54088   75300      0    2.57e+00    0    1.54e+00
2006 12 19  2100    54088   75600      9   -1.00e+05    9   -1.00e+05
2006 12 19  2105    54088   75900      9   -1.00e+05    9   -1.00e+05
2006 12 19  2110    54088   76200      9   -1.00e+05    9   -1.00e+05
2006 12 19  2115    54088   76500      0    2.47e+00    0    1.61e+00
2006 12 19  2120    54088   76800      0    2.42e+00    0    1.57e+00
2006 12 19  2125    54088   77100      0    2.36e+00    0    1.55e+00
2006 12 19  2130    54088   77400      0    2.41e+00    0    1.57e+00
2006 12 19  2135    54088   77700      0    2.40e+00    0    1.56e+00
2006 12 19  2140    54088   78000      0    2.52e+00    0    1.62e+00
2006 12 19  2145    54088   78300      0    2.44e+00    0    1.57e+00
2006 12 19  2150    54088   78600      0    2.41e+00    0    1.56e+00
2006 12 19  2155    54088   78900      0    2.42e+00    0    1.57e+00
2006 12 19  2200    54088   79200      0    2.42e+00    0    1.56e+00
2006 12 19  2205    54088   79500      0    2.39e+00    0    1.55e+00
2006 12 19  2210    54088   79800      0    2.43e+00    0    1.60e+00
2006 12 19  2215    54088   80100      0    2.45e+00    0    1.60e+00
2006 12 19  2220    54088   80400      0    2.44e+00    0    1.58e+00
2006 12 19  2225    54088   80700      0    2.33e+00    0    1.53e+00
2006 12 19  2230    54088   81000      0    2.38e+00    0    1.56e+00
2006 12 19  2235    54088   81300      0    2.39e+00    0    1.56e+00
2006 12 19  2240    54088   81600      0    2.33e+00    0    1.53e+00
2006 12 19  2245    54088   81900      0    2.41e+00    0    1.61e+00
2006 12 19  2250    54088   82200      0    2.45e+00    0    1.60e+00
2006 12 19  2255    54088   82500      0    2.43e+00    0    1.59e+00
2006 12 19  2300    54088   82800      0    2.40e+00    0    1.57e+00
2006 12 19  2305    54088   83100      0    2.34e+00    0    1.53e+00
2006 12 19  2310    54088   83400      0    2.39e+00    0    1.56e+00
2006 12 19  2315    54088   83700      0    2.33e+00    0    1.54e+00
2006 12 19  2320    54088   84000      0    2.40e+00    0    1.57e+00
2006 12 19  2325    54088   84300      0    2.43e+00    0    1.59e+00
2006 12 19  2330    54088   84600      0    2.44e+00    0    1.61e+00
2006 12 19  2335    54088   84900      0    2.36e+00    0    1.55e+00
2006 12 19  2340    54088   85200      0    2.37e+00    0    1.55e+00
2006 12 19  2345    54088   85500      0    2.33e+00    0    1.52e+00
2006 12 19  2350    54088   85800      0    2.41e+00    0    1.58e+00
2006 12 19  2355    54088   86100      0    2.44e+00    0    1.60e+00
