:Data_list: 20060411_ace_sis_5m.txt
:Created: 2006 Apr 12 0011 UT
# Prepared by the U.S. Dept. of Commerce, NOAA, Space Environment Center.
# Please send comments and suggestions to SEC.Webmaster@noaa.gov 
# 
# Units: proton flux p/cs2-sec-ster
# Status(S): 0 = nominal data, 1 to 8 = bad data record, 9 = no data
# Missing data values: -1.00e+05
# Source: ACE Satellite - Solar Isotope Spectrometer
#
# 5-minute averaged Real-time Integral Flux of High-energy Solar Protons
# 
#                 Modified Seconds
# UT Date   Time   Julian  of the      ---- Integral Proton Flux ----
# YR MO DA  HHMM     Day     Day       S    > 10 MeV    S    > 30 MeV
#--------------------------------------------------------------------
2006 04 11  0000    53836       0      0    1.53e+00    0    1.08e+00
2006 04 11  0005    53836     300      0    1.53e+00    0    1.06e+00
2006 04 11  0010    53836     600      0    1.52e+00    0    1.07e+00
2006 04 11  0015    53836     900      0    1.53e+00    0    1.09e+00
2006 04 11  0020    53836    1200      0    1.54e+00    0    1.08e+00
2006 04 11  0025    53836    1500      0    1.53e+00    0    1.07e+00
2006 04 11  0030    53836    1800      0    1.52e+00    0    1.08e+00
2006 04 11  0035    53836    2100      0    1.50e+00    0    1.04e+00
2006 04 11  0040    53836    2400      0    1.49e+00    0    1.03e+00
2006 04 11  0045    53836    2700      0    1.52e+00    0    1.06e+00
2006 04 11  0050    53836    3000      0    1.53e+00    0    1.07e+00
2006 04 11  0055    53836    3300      0    1.52e+00    0    1.07e+00
2006 04 11  0100    53836    3600      0    1.53e+00    0    1.09e+00
2006 04 11  0105    53836    3900      0    1.51e+00    0    1.06e+00
2006 04 11  0110    53836    4200      0    1.50e+00    0    1.04e+00
2006 04 11  0115    53836    4500      0    1.51e+00    0    1.06e+00
2006 04 11  0120    53836    4800      0    1.50e+00    0    1.05e+00
2006 04 11  0125    53836    5100      0    1.55e+00    0    1.08e+00
2006 04 11  0130    53836    5400      0    1.49e+00    0    1.04e+00
2006 04 11  0135    53836    5700      0    1.52e+00    0    1.05e+00
2006 04 11  0140    53836    6000      0    1.55e+00    0    1.08e+00
2006 04 11  0145    53836    6300      0    1.58e+00    0    1.11e+00
2006 04 11  0150    53836    6600      0    1.50e+00    0    1.05e+00
2006 04 11  0155    53836    6900      0    1.55e+00    0    1.08e+00
2006 04 11  0200    53836    7200      0    1.50e+00    0    1.05e+00
2006 04 11  0205    53836    7500      0    1.52e+00    0    1.06e+00
2006 04 11  0210    53836    7800      0    1.50e+00    0    1.05e+00
2006 04 11  0215    53836    8100      0    1.50e+00    0    1.05e+00
2006 04 11  0220    53836    8400      0    1.54e+00    0    1.08e+00
2006 04 11  0225    53836    8700      0    1.54e+00    0    1.06e+00
2006 04 11  0230    53836    9000      0    1.54e+00    0    1.07e+00
2006 04 11  0235    53836    9300      0    1.52e+00    0    1.07e+00
2006 04 11  0240    53836    9600      0    1.54e+00    0    1.08e+00
2006 04 11  0245    53836    9900      0    1.54e+00    0    1.08e+00
2006 04 11  0250    53836   10200      0    1.53e+00    0    1.07e+00
2006 04 11  0255    53836   10500      0    1.52e+00    0    1.08e+00
2006 04 11  0300    53836   10800      0    1.53e+00    0    1.06e+00
2006 04 11  0305    53836   11100      0    1.55e+00    0    1.10e+00
2006 04 11  0310    53836   11400      0    1.57e+00    0    1.10e+00
2006 04 11  0315    53836   11700      0    1.53e+00    0    1.08e+00
2006 04 11  0320    53836   12000      0    1.50e+00    0    1.04e+00
2006 04 11  0325    53836   12300      0    1.54e+00    0    1.08e+00
2006 04 11  0330    53836   12600      0    1.55e+00    0    1.09e+00
2006 04 11  0335    53836   12900      0    1.54e+00    0    1.08e+00
2006 04 11  0340    53836   13200      0    1.56e+00    0    1.09e+00
2006 04 11  0345    53836   13500      0    1.50e+00    0    1.05e+00
2006 04 11  0350    53836   13800      0    1.54e+00    0    1.07e+00
2006 04 11  0355    53836   14100      0    1.52e+00    0    1.06e+00
2006 04 11  0400    53836   14400      0    1.55e+00    0    1.10e+00
2006 04 11  0405    53836   14700      0    1.51e+00    0    1.05e+00
2006 04 11  0410    53836   15000      0    1.54e+00    0    1.08e+00
2006 04 11  0415    53836   15300      0    1.54e+00    0    1.07e+00
2006 04 11  0420    53836   15600      0    1.50e+00    0    1.05e+00
2006 04 11  0425    53836   15900      0    1.51e+00    0    1.06e+00
2006 04 11  0430    53836   16200      0    1.52e+00    0    1.07e+00
2006 04 11  0435    53836   16500      0    1.56e+00    0    1.10e+00
2006 04 11  0440    53836   16800      0    1.56e+00    0    1.09e+00
2006 04 11  0445    53836   17100      0    1.57e+00    0    1.10e+00
2006 04 11  0450    53836   17400      0    1.53e+00    0    1.08e+00
2006 04 11  0455    53836   17700      0    1.56e+00    0    1.10e+00
2006 04 11  0500    53836   18000      0    1.57e+00    0    1.11e+00
2006 04 11  0505    53836   18300      0    1.54e+00    0    1.09e+00
2006 04 11  0510    53836   18600      0    1.50e+00    0    1.04e+00
2006 04 11  0515    53836   18900      0    1.51e+00    0    1.05e+00
2006 04 11  0520    53836   19200      0    1.53e+00    0    1.08e+00
2006 04 11  0525    53836   19500      0    1.56e+00    0    1.09e+00
2006 04 11  0530    53836   19800      0    1.54e+00    0    1.09e+00
2006 04 11  0535    53836   20100      0    1.52e+00    0    1.06e+00
2006 04 11  0540    53836   20400      0    1.54e+00    0    1.09e+00
2006 04 11  0545    53836   20700      0    1.52e+00    0    1.06e+00
2006 04 11  0550    53836   21000      0    1.53e+00    0    1.09e+00
2006 04 11  0555    53836   21300      0    1.54e+00    0    1.07e+00
2006 04 11  0600    53836   21600      0    1.57e+00    0    1.11e+00
2006 04 11  0605    53836   21900      0    1.54e+00    0    1.08e+00
2006 04 11  0610    53836   22200      0    1.56e+00    0    1.08e+00
2006 04 11  0615    53836   22500      0    1.52e+00    0    1.06e+00
2006 04 11  0620    53836   22800      0    1.53e+00    0    1.07e+00
2006 04 11  0625    53836   23100      0    1.55e+00    0    1.08e+00
2006 04 11  0630    53836   23400      0    1.54e+00    0    1.08e+00
2006 04 11  0635    53836   23700      0    1.56e+00    0    1.10e+00
2006 04 11  0640    53836   24000      0    1.49e+00    0    1.04e+00
2006 04 11  0645    53836   24300      0    1.53e+00    0    1.07e+00
2006 04 11  0650    53836   24600      0    1.52e+00    0    1.07e+00
2006 04 11  0655    53836   24900      0    1.56e+00    0    1.10e+00
2006 04 11  0700    53836   25200      0    1.54e+00    0    1.09e+00
2006 04 11  0705    53836   25500      0    1.50e+00    0    1.04e+00
2006 04 11  0710    53836   25800      0    1.51e+00    0    1.05e+00
2006 04 11  0715    53836   26100      0    1.54e+00    0    1.09e+00
2006 04 11  0720    53836   26400      0    1.53e+00    0    1.07e+00
2006 04 11  0725    53836   26700      0    1.55e+00    0    1.09e+00
2006 04 11  0730    53836   27000      0    1.59e+00    0    1.11e+00
2006 04 11  0735    53836   27300      0    1.54e+00    0    1.09e+00
2006 04 11  0740    53836   27600      0    1.57e+00    0    1.10e+00
2006 04 11  0745    53836   27900      0    1.56e+00    0    1.09e+00
2006 04 11  0750    53836   28200      0    1.55e+00    0    1.09e+00
2006 04 11  0755    53836   28500      0    1.53e+00    0    1.09e+00
2006 04 11  0800    53836   28800      0    1.53e+00    0    1.07e+00
2006 04 11  0805    53836   29100      0    1.53e+00    0    1.06e+00
2006 04 11  0810    53836   29400      0    1.52e+00    0    1.06e+00
2006 04 11  0815    53836   29700      0    1.50e+00    0    1.07e+00
2006 04 11  0820    53836   30000      0    1.53e+00    0    1.07e+00
2006 04 11  0825    53836   30300      0    1.54e+00    0    1.08e+00
2006 04 11  0830    53836   30600      0    1.54e+00    0    1.08e+00
2006 04 11  0835    53836   30900      0    1.51e+00    0    1.06e+00
2006 04 11  0840    53836   31200      0    1.56e+00    0    1.09e+00
2006 04 11  0845    53836   31500      0    1.56e+00    0    1.10e+00
2006 04 11  0850    53836   31800      0    1.55e+00    0    1.08e+00
2006 04 11  0855    53836   32100      0    1.53e+00    0    1.08e+00
2006 04 11  0900    53836   32400      0    1.53e+00    0    1.07e+00
2006 04 11  0905    53836   32700      0    1.52e+00    0    1.06e+00
2006 04 11  0910    53836   33000      0    1.54e+00    0    1.09e+00
2006 04 11  0915    53836   33300      0    1.54e+00    0    1.08e+00
2006 04 11  0920    53836   33600      0    1.51e+00    0    1.06e+00
2006 04 11  0925    53836   33900      0    1.54e+00    0    1.07e+00
2006 04 11  0930    53836   34200      0    1.54e+00    0    1.08e+00
2006 04 11  0935    53836   34500      0    1.54e+00    0    1.09e+00
2006 04 11  0940    53836   34800      0    1.49e+00    0    1.04e+00
2006 04 11  0945    53836   35100      0    1.53e+00    0    1.08e+00
2006 04 11  0950    53836   35400      0    1.52e+00    0    1.05e+00
2006 04 11  0955    53836   35700      0    1.51e+00    0    1.05e+00
2006 04 11  1000    53836   36000      0    1.52e+00    0    1.08e+00
2006 04 11  1005    53836   36300      0    1.50e+00    0    1.05e+00
2006 04 11  1010    53836   36600      0    1.52e+00    0    1.08e+00
2006 04 11  1015    53836   36900      0    1.55e+00    0    1.10e+00
2006 04 11  1020    53836   37200      0    1.57e+00    0    1.10e+00
2006 04 11  1025    53836   37500      0    1.51e+00    0    1.06e+00
2006 04 11  1030    53836   37800      0    1.56e+00    0    1.09e+00
2006 04 11  1035    53836   38100      0    1.53e+00    0    1.07e+00
2006 04 11  1040    53836   38400      0    1.53e+00    0    1.07e+00
2006 04 11  1045    53836   38700      0    1.52e+00    0    1.05e+00
2006 04 11  1050    53836   39000      0    1.54e+00    0    1.09e+00
2006 04 11  1055    53836   39300      0    1.55e+00    0    1.09e+00
2006 04 11  1100    53836   39600      0    1.56e+00    0    1.09e+00
2006 04 11  1105    53836   39900      0    1.55e+00    0    1.09e+00
2006 04 11  1110    53836   40200      0    1.55e+00    0    1.09e+00
2006 04 11  1115    53836   40500      0    1.60e+00    0    1.12e+00
2006 04 11  1120    53836   40800      0    1.54e+00    0    1.09e+00
2006 04 11  1125    53836   41100      0    1.50e+00    0    1.06e+00
2006 04 11  1130    53836   41400      0    1.53e+00    0    1.08e+00
2006 04 11  1135    53836   41700      0    1.51e+00    0    1.05e+00
2006 04 11  1140    53836   42000      0    1.50e+00    0    1.04e+00
2006 04 11  1145    53836   42300      0    1.54e+00    0    1.07e+00
2006 04 11  1150    53836   42600      0    1.54e+00    0    1.09e+00
2006 04 11  1155    53836   42900      0    1.52e+00    0    1.06e+00
2006 04 11  1200    53836   43200      0    1.51e+00    0    1.05e+00
2006 04 11  1205    53836   43500      0    1.54e+00    0    1.07e+00
2006 04 11  1210    53836   43800      0    1.50e+00    0    1.05e+00
2006 04 11  1215    53836   44100      0    1.57e+00    0    1.10e+00
2006 04 11  1220    53836   44400      0    1.53e+00    0    1.08e+00
2006 04 11  1225    53836   44700      0    1.55e+00    0    1.09e+00
2006 04 11  1230    53836   45000      0    1.53e+00    0    1.08e+00
2006 04 11  1235    53836   45300      0    1.52e+00    0    1.06e+00
2006 04 11  1240    53836   45600      0    1.53e+00    0    1.09e+00
2006 04 11  1245    53836   45900      0    1.54e+00    0    1.08e+00
2006 04 11  1250    53836   46200      0    1.52e+00    0    1.06e+00
2006 04 11  1255    53836   46500      0    1.52e+00    0    1.06e+00
2006 04 11  1300    53836   46800      0    1.55e+00    0    1.09e+00
2006 04 11  1305    53836   47100      0    1.53e+00    0    1.08e+00
2006 04 11  1310    53836   47400      0    1.53e+00    0    1.07e+00
2006 04 11  1315    53836   47700      0    1.56e+00    0    1.09e+00
2006 04 11  1320    53836   48000      0    1.52e+00    0    1.06e+00
2006 04 11  1325    53836   48300      0    1.52e+00    0    1.06e+00
2006 04 11  1330    53836   48600      0    1.56e+00    0    1.10e+00
2006 04 11  1335    53836   48900      0    1.56e+00    0    1.09e+00
2006 04 11  1340    53836   49200      0    1.53e+00    0    1.07e+00
2006 04 11  1345    53836   49500      0    1.54e+00    0    1.08e+00
2006 04 11  1350    53836   49800      0    1.54e+00    0    1.07e+00
2006 04 11  1355    53836   50100      0    1.53e+00    0    1.08e+00
2006 04 11  1400    53836   50400      0    1.54e+00    0    1.08e+00
2006 04 11  1405    53836   50700      0    1.51e+00    0    1.05e+00
2006 04 11  1410    53836   51000      0    1.53e+00    0    1.06e+00
2006 04 11  1415    53836   51300      0    1.56e+00    0    1.09e+00
2006 04 11  1420    53836   51600      0    1.58e+00    0    1.10e+00
2006 04 11  1425    53836   51900      0    1.50e+00    0    1.04e+00
2006 04 11  1430    53836   52200      0    1.54e+00    0    1.09e+00
2006 04 11  1435    53836   52500      0    1.53e+00    0    1.07e+00
2006 04 11  1440    53836   52800      0    1.51e+00    0    1.05e+00
2006 04 11  1445    53836   53100      0    1.49e+00    0    1.04e+00
2006 04 11  1450    53836   53400      0    1.53e+00    0    1.07e+00
2006 04 11  1455    53836   53700      0    1.53e+00    0    1.06e+00
2006 04 11  1500    53836   54000      0    1.52e+00    0    1.06e+00
2006 04 11  1505    53836   54300      0    1.52e+00    0    1.07e+00
2006 04 11  1510    53836   54600      0    1.55e+00    0    1.08e+00
2006 04 11  1515    53836   54900      0    1.55e+00    0    1.09e+00
2006 04 11  1520    53836   55200      0    1.52e+00    0    1.08e+00
2006 04 11  1525    53836   55500      0    1.55e+00    0    1.10e+00
2006 04 11  1530    53836   55800      0    1.54e+00    0    1.09e+00
2006 04 11  1535    53836   56100      0    1.54e+00    0    1.08e+00
2006 04 11  1540    53836   56400      0    1.54e+00    0    1.06e+00
2006 04 11  1545    53836   56700      0    1.54e+00    0    1.08e+00
2006 04 11  1550    53836   57000      0    1.54e+00    0    1.09e+00
2006 04 11  1555    53836   57300      0    1.50e+00    0    1.05e+00
2006 04 11  1600    53836   57600      0    1.53e+00    0    1.07e+00
2006 04 11  1605    53836   57900      0    1.52e+00    0    1.07e+00
2006 04 11  1610    53836   58200      0    1.55e+00    0    1.08e+00
2006 04 11  1615    53836   58500      0    1.54e+00    0    1.08e+00
2006 04 11  1620    53836   58800      0    1.52e+00    0    1.06e+00
2006 04 11  1625    53836   59100      0    1.52e+00    0    1.08e+00
2006 04 11  1630    53836   59400      0    1.52e+00    0    1.07e+00
2006 04 11  1635    53836   59700      0    1.51e+00    0    1.06e+00
2006 04 11  1640    53836   60000      0    1.53e+00    0    1.08e+00
2006 04 11  1645    53836   60300      0    1.56e+00    0    1.08e+00
2006 04 11  1650    53836   60600      0    1.54e+00    0    1.08e+00
2006 04 11  1655    53836   60900      0    1.55e+00    0    1.08e+00
2006 04 11  1700    53836   61200      0    1.54e+00    0    1.09e+00
2006 04 11  1705    53836   61500      0    1.53e+00    0    1.07e+00
2006 04 11  1710    53836   61800      0    1.57e+00    0    1.10e+00
2006 04 11  1715    53836   62100      0    1.54e+00    0    1.08e+00
2006 04 11  1720    53836   62400      0    1.55e+00    0    1.08e+00
2006 04 11  1725    53836   62700      0    1.55e+00    0    1.08e+00
2006 04 11  1730    53836   63000      0    1.52e+00    0    1.07e+00
2006 04 11  1735    53836   63300      0    1.53e+00    0    1.08e+00
2006 04 11  1740    53836   63600      0    1.52e+00    0    1.07e+00
2006 04 11  1745    53836   63900      0    1.55e+00    0    1.10e+00
2006 04 11  1750    53836   64200      0    1.53e+00    0    1.09e+00
2006 04 11  1755    53836   64500      0    1.51e+00    0    1.05e+00
2006 04 11  1800    53836   64800      0    1.51e+00    0    1.05e+00
2006 04 11  1805    53836   65100      0    1.54e+00    0    1.08e+00
2006 04 11  1810    53836   65400      0    1.53e+00    0    1.07e+00
2006 04 11  1815    53836   65700      0    1.54e+00    0    1.09e+00
2006 04 11  1820    53836   66000      0    1.54e+00    0    1.08e+00
2006 04 11  1825    53836   66300      0    1.55e+00    0    1.08e+00
2006 04 11  1830    53836   66600      0    1.54e+00    0    1.08e+00
2006 04 11  1835    53836   66900      0    1.55e+00    0    1.09e+00
2006 04 11  1840    53836   67200      0    1.56e+00    0    1.09e+00
2006 04 11  1845    53836   67500      0    1.56e+00    0    1.09e+00
2006 04 11  1850    53836   67800      0    1.53e+00    0    1.07e+00
2006 04 11  1855    53836   68100      0    1.53e+00    0    1.07e+00
2006 04 11  1900    53836   68400      0    1.50e+00    0    1.05e+00
2006 04 11  1905    53836   68700      0    1.51e+00    0    1.07e+00
2006 04 11  1910    53836   69000      0    1.54e+00    0    1.08e+00
2006 04 11  1915    53836   69300      0    1.55e+00    0    1.08e+00
2006 04 11  1920    53836   69600      0    1.56e+00    0    1.10e+00
2006 04 11  1925    53836   69900      0    1.52e+00    0    1.07e+00
2006 04 11  1930    53836   70200      0    1.56e+00    0    1.10e+00
2006 04 11  1935    53836   70500      0    1.53e+00    0    1.07e+00
2006 04 11  1940    53836   70800      0    1.54e+00    0    1.08e+00
2006 04 11  1945    53836   71100      0    1.53e+00    0    1.07e+00
2006 04 11  1950    53836   71400      0    1.55e+00    0    1.09e+00
2006 04 11  1955    53836   71700      0    1.55e+00    0    1.08e+00
2006 04 11  2000    53836   72000      0    1.53e+00    0    1.07e+00
2006 04 11  2005    53836   72300      0    1.55e+00    0    1.09e+00
2006 04 11  2010    53836   72600      0    1.60e+00    0    1.13e+00
2006 04 11  2015    53836   72900      0    1.52e+00    0    1.07e+00
2006 04 11  2020    53836   73200      0    1.55e+00    0    1.08e+00
2006 04 11  2025    53836   73500      0    1.57e+00    0    1.10e+00
2006 04 11  2030    53836   73800      0    1.56e+00    0    1.08e+00
2006 04 11  2035    53836   74100      0    1.55e+00    0    1.09e+00
2006 04 11  2040    53836   74400      0    1.57e+00    0    1.10e+00
2006 04 11  2045    53836   74700      0    1.54e+00    0    1.08e+00
2006 04 11  2050    53836   75000      0    1.54e+00    0    1.09e+00
2006 04 11  2055    53836   75300      0    1.53e+00    0    1.06e+00
2006 04 11  2100    53836   75600      0    1.53e+00    0    1.06e+00
2006 04 11  2105    53836   75900      0    1.53e+00    0    1.07e+00
2006 04 11  2110    53836   76200      0    1.55e+00    0    1.09e+00
2006 04 11  2115    53836   76500      0    1.55e+00    0    1.09e+00
2006 04 11  2120    53836   76800      0    1.52e+00    0    1.07e+00
2006 04 11  2125    53836   77100      0    1.53e+00    0    1.07e+00
2006 04 11  2130    53836   77400      0    1.52e+00    0    1.06e+00
2006 04 11  2135    53836   77700      0    1.54e+00    0    1.10e+00
2006 04 11  2140    53836   78000      0    1.56e+00    0    1.09e+00
2006 04 11  2145    53836   78300      0    1.56e+00    0    1.09e+00
2006 04 11  2150    53836   78600      0    1.50e+00    0    1.04e+00
2006 04 11  2155    53836   78900      0    1.54e+00    0    1.07e+00
2006 04 11  2200    53836   79200      0    1.53e+00    0    1.06e+00
2006 04 11  2205    53836   79500      0    1.53e+00    0    1.08e+00
2006 04 11  2210    53836   79800      0    1.50e+00    0    1.04e+00
2006 04 11  2215    53836   80100      0    1.52e+00    0    1.06e+00
2006 04 11  2220    53836   80400      0    1.51e+00    0    1.06e+00
2006 04 11  2225    53836   80700      0    1.54e+00    0    1.07e+00
2006 04 11  2230    53836   81000      0    1.54e+00    0    1.08e+00
2006 04 11  2235    53836   81300      0    1.55e+00    0    1.08e+00
2006 04 11  2240    53836   81600      0    1.60e+00    0    1.14e+00
2006 04 11  2245    53836   81900      0    1.55e+00    0    1.09e+00
2006 04 11  2250    53836   82200      0    1.54e+00    0    1.09e+00
2006 04 11  2255    53836   82500      0    1.51e+00    0    1.06e+00
2006 04 11  2300    53836   82800      0    1.56e+00    0    1.09e+00
2006 04 11  2305    53836   83100      0    1.58e+00    0    1.10e+00
2006 04 11  2310    53836   83400      0    1.58e+00    0    1.13e+00
2006 04 11  2315    53836   83700      0    1.55e+00    0    1.08e+00
2006 04 11  2320    53836   84000      0    1.53e+00    0    1.08e+00
2006 04 11  2325    53836   84300      0    1.56e+00    0    1.10e+00
2006 04 11  2330    53836   84600      0    1.52e+00    0    1.07e+00
2006 04 11  2335    53836   84900      0    1.55e+00    0    1.10e+00
2006 04 11  2340    53836   85200      0    1.56e+00    0    1.09e+00
2006 04 11  2345    53836   85500      0    1.47e+00    0    1.02e+00
2006 04 11  2350    53836   85800      0    1.58e+00    0    1.11e+00
2006 04 11  2355    53836   86100      0    1.54e+00    0    1.07e+00
