:Data_list: 20061031_ace_sis_5m.txt
:Created: 2006 Nov 01 0011 UT
# Prepared by the U.S. Dept. of Commerce, NOAA, Space Environment Center.
# Please send comments and suggestions to SEC.Webmaster@noaa.gov 
# 
# Units: proton flux p/cs2-sec-ster
# Status(S): 0 = nominal data, 1 to 8 = bad data record, 9 = no data
# Missing data values: -1.00e+05
# Source: ACE Satellite - Solar Isotope Spectrometer
#
# 5-minute averaged Real-time Integral Flux of High-energy Solar Protons
# 
#                 Modified Seconds
# UT Date   Time   Julian  of the      ---- Integral Proton Flux ----
# YR MO DA  HHMM     Day     Day       S    > 10 MeV    S    > 30 MeV
#--------------------------------------------------------------------
2006 10 31  0000    54039       0      0    1.73e+00    0    1.22e+00
2006 10 31  0005    54039     300      0    1.72e+00    0    1.21e+00
2006 10 31  0010    54039     600      0    1.72e+00    0    1.21e+00
2006 10 31  0015    54039     900      0    1.72e+00    0    1.21e+00
2006 10 31  0020    54039    1200      0    1.71e+00    0    1.19e+00
2006 10 31  0025    54039    1500      0    1.72e+00    0    1.21e+00
2006 10 31  0030    54039    1800      0    1.72e+00    0    1.20e+00
2006 10 31  0035    54039    2100      0    1.74e+00    0    1.23e+00
2006 10 31  0040    54039    2400      0    1.71e+00    0    1.19e+00
2006 10 31  0045    54039    2700      0    1.71e+00    0    1.20e+00
2006 10 31  0050    54039    3000      0    1.70e+00    0    1.18e+00
2006 10 31  0055    54039    3300      0    1.75e+00    0    1.21e+00
2006 10 31  0100    54039    3600      0    1.70e+00    0    1.18e+00
2006 10 31  0105    54039    3900      0    1.72e+00    0    1.21e+00
2006 10 31  0110    54039    4200      0    1.70e+00    0    1.20e+00
2006 10 31  0115    54039    4500      0    1.71e+00    0    1.20e+00
2006 10 31  0120    54039    4800      0    1.69e+00    0    1.18e+00
2006 10 31  0125    54039    5100      0    1.71e+00    0    1.21e+00
2006 10 31  0130    54039    5400      0    1.73e+00    0    1.20e+00
2006 10 31  0135    54039    5700      0    1.74e+00    0    1.22e+00
2006 10 31  0140    54039    6000      0    1.72e+00    0    1.20e+00
2006 10 31  0145    54039    6300      0    1.71e+00    0    1.20e+00
2006 10 31  0150    54039    6600      0    1.70e+00    0    1.19e+00
2006 10 31  0155    54039    6900      0    1.67e+00    0    1.17e+00
2006 10 31  0200    54039    7200      0    1.75e+00    0    1.23e+00
2006 10 31  0205    54039    7500      0    1.73e+00    0    1.22e+00
2006 10 31  0210    54039    7800      0    1.71e+00    0    1.20e+00
2006 10 31  0215    54039    8100      0    1.73e+00    0    1.21e+00
2006 10 31  0220    54039    8400      0    1.74e+00    0    1.22e+00
2006 10 31  0225    54039    8700      0    1.73e+00    0    1.21e+00
2006 10 31  0230    54039    9000      0    1.73e+00    0    1.22e+00
2006 10 31  0235    54039    9300      0    1.75e+00    0    1.23e+00
2006 10 31  0240    54039    9600      0    1.69e+00    0    1.18e+00
2006 10 31  0245    54039    9900      0    1.73e+00    0    1.22e+00
2006 10 31  0250    54039   10200      0    1.71e+00    0    1.19e+00
2006 10 31  0255    54039   10500      0    1.72e+00    0    1.21e+00
2006 10 31  0300    54039   10800      0    1.70e+00    0    1.19e+00
2006 10 31  0305    54039   11100      0    1.72e+00    0    1.21e+00
2006 10 31  0310    54039   11400      0    1.75e+00    0    1.22e+00
2006 10 31  0315    54039   11700      0    1.71e+00    0    1.21e+00
2006 10 31  0320    54039   12000      0    1.73e+00    0    1.21e+00
2006 10 31  0325    54039   12300      0    1.74e+00    0    1.23e+00
2006 10 31  0330    54039   12600      0    1.74e+00    0    1.23e+00
2006 10 31  0335    54039   12900      0    1.72e+00    0    1.20e+00
2006 10 31  0340    54039   13200      0    1.74e+00    0    1.23e+00
2006 10 31  0345    54039   13500      0    1.72e+00    0    1.20e+00
2006 10 31  0350    54039   13800      0    1.70e+00    0    1.19e+00
2006 10 31  0355    54039   14100      0    1.77e+00    0    1.25e+00
2006 10 31  0400    54039   14400      0    1.75e+00    0    1.23e+00
2006 10 31  0405    54039   14700      0    1.75e+00    0    1.23e+00
2006 10 31  0410    54039   15000      0    1.75e+00    0    1.22e+00
2006 10 31  0415    54039   15300      0    1.73e+00    0    1.20e+00
2006 10 31  0420    54039   15600      0    1.75e+00    0    1.22e+00
2006 10 31  0425    54039   15900      0    1.73e+00    0    1.20e+00
2006 10 31  0430    54039   16200      0    1.77e+00    0    1.25e+00
2006 10 31  0435    54039   16500      0    1.74e+00    0    1.22e+00
2006 10 31  0440    54039   16800      0    1.75e+00    0    1.23e+00
2006 10 31  0445    54039   17100      0    1.73e+00    0    1.22e+00
2006 10 31  0450    54039   17400      0    1.72e+00    0    1.21e+00
2006 10 31  0455    54039   17700      0    1.74e+00    0    1.23e+00
2006 10 31  0500    54039   18000      0    1.71e+00    0    1.20e+00
2006 10 31  0505    54039   18300      0    1.73e+00    0    1.20e+00
2006 10 31  0510    54039   18600      0    1.75e+00    0    1.23e+00
2006 10 31  0515    54039   18900      0    1.70e+00    0    1.19e+00
2006 10 31  0520    54039   19200      0    1.75e+00    0    1.23e+00
2006 10 31  0525    54039   19500      0    1.75e+00    0    1.23e+00
2006 10 31  0530    54039   19800      0    1.77e+00    0    1.24e+00
2006 10 31  0535    54039   20100      0    1.70e+00    0    1.21e+00
2006 10 31  0540    54039   20400      0    1.72e+00    0    1.22e+00
2006 10 31  0545    54039   20700      0    1.70e+00    0    1.20e+00
2006 10 31  0550    54039   21000      0    1.71e+00    0    1.20e+00
2006 10 31  0555    54039   21300      0    1.68e+00    0    1.17e+00
2006 10 31  0600    54039   21600      0    1.64e+00    0    1.15e+00
2006 10 31  0605    54039   21900      0    1.69e+00    0    1.18e+00
2006 10 31  0610    54039   22200      0    1.72e+00    0    1.21e+00
2006 10 31  0615    54039   22500      0    1.70e+00    0    1.20e+00
2006 10 31  0620    54039   22800      0    1.70e+00    0    1.19e+00
2006 10 31  0625    54039   23100      0    1.70e+00    0    1.19e+00
2006 10 31  0630    54039   23400      0    1.69e+00    0    1.19e+00
2006 10 31  0635    54039   23700      0    1.71e+00    0    1.20e+00
2006 10 31  0640    54039   24000      0    1.67e+00    0    1.17e+00
2006 10 31  0645    54039   24300      0    1.68e+00    0    1.18e+00
2006 10 31  0650    54039   24600      0    1.67e+00    0    1.17e+00
2006 10 31  0655    54039   24900      0    1.67e+00    0    1.16e+00
2006 10 31  0700    54039   25200      0    1.72e+00    0    1.22e+00
2006 10 31  0705    54039   25500      0    1.67e+00    0    1.17e+00
2006 10 31  0710    54039   25800      0    1.70e+00    0    1.19e+00
2006 10 31  0715    54039   26100      0    1.70e+00    0    1.20e+00
2006 10 31  0720    54039   26400      0    1.69e+00    0    1.19e+00
2006 10 31  0725    54039   26700      0    1.67e+00    0    1.18e+00
2006 10 31  0730    54039   27000      0    1.69e+00    0    1.17e+00
2006 10 31  0735    54039   27300      0    1.74e+00    0    1.24e+00
2006 10 31  0740    54039   27600      0    1.70e+00    0    1.20e+00
2006 10 31  0745    54039   27900      0    1.71e+00    0    1.20e+00
2006 10 31  0750    54039   28200      0    1.70e+00    0    1.19e+00
2006 10 31  0755    54039   28500      0    1.69e+00    0    1.19e+00
2006 10 31  0800    54039   28800      0    1.68e+00    0    1.18e+00
2006 10 31  0805    54039   29100      0    1.68e+00    0    1.16e+00
2006 10 31  0810    54039   29400      0    1.67e+00    0    1.19e+00
2006 10 31  0815    54039   29700      0    1.68e+00    0    1.18e+00
2006 10 31  0820    54039   30000      0    1.72e+00    0    1.21e+00
2006 10 31  0825    54039   30300      0    1.72e+00    0    1.21e+00
2006 10 31  0830    54039   30600      0    1.69e+00    0    1.19e+00
2006 10 31  0835    54039   30900      0    1.70e+00    0    1.19e+00
2006 10 31  0840    54039   31200      0    1.70e+00    0    1.18e+00
2006 10 31  0845    54039   31500      0    1.70e+00    0    1.18e+00
2006 10 31  0850    54039   31800      0    1.67e+00    0    1.18e+00
2006 10 31  0855    54039   32100      0    1.72e+00    0    1.20e+00
2006 10 31  0900    54039   32400      0    1.70e+00    0    1.21e+00
2006 10 31  0905    54039   32700      0    1.69e+00    0    1.18e+00
2006 10 31  0910    54039   33000      0    1.70e+00    0    1.19e+00
2006 10 31  0915    54039   33300      0    1.70e+00    0    1.20e+00
2006 10 31  0920    54039   33600      0    1.72e+00    0    1.20e+00
2006 10 31  0925    54039   33900      0    1.70e+00    0    1.19e+00
2006 10 31  0930    54039   34200      0    1.71e+00    0    1.20e+00
2006 10 31  0935    54039   34500      0    1.72e+00    0    1.21e+00
2006 10 31  0940    54039   34800      0    1.72e+00    0    1.20e+00
2006 10 31  0945    54039   35100      0    1.69e+00    0    1.19e+00
2006 10 31  0950    54039   35400      0    1.70e+00    0    1.20e+00
2006 10 31  0955    54039   35700      0    1.68e+00    0    1.17e+00
2006 10 31  1000    54039   36000      0    1.71e+00    0    1.20e+00
2006 10 31  1005    54039   36300      0    1.70e+00    0    1.20e+00
2006 10 31  1010    54039   36600      0    1.70e+00    0    1.20e+00
2006 10 31  1015    54039   36900      0    1.66e+00    0    1.16e+00
2006 10 31  1020    54039   37200      0    1.71e+00    0    1.21e+00
2006 10 31  1025    54039   37500      0    1.69e+00    0    1.18e+00
2006 10 31  1030    54039   37800      0    1.67e+00    0    1.17e+00
2006 10 31  1035    54039   38100      0    1.70e+00    0    1.21e+00
2006 10 31  1040    54039   38400      0    1.71e+00    0    1.20e+00
2006 10 31  1045    54039   38700      0    1.75e+00    0    1.22e+00
2006 10 31  1050    54039   39000      0    1.70e+00    0    1.18e+00
2006 10 31  1055    54039   39300      0    1.69e+00    0    1.18e+00
2006 10 31  1100    54039   39600      0    1.69e+00    0    1.19e+00
2006 10 31  1105    54039   39900      0    1.69e+00    0    1.19e+00
2006 10 31  1110    54039   40200      0    1.72e+00    0    1.22e+00
2006 10 31  1115    54039   40500      0    1.73e+00    0    1.22e+00
2006 10 31  1120    54039   40800      0    1.70e+00    0    1.20e+00
2006 10 31  1125    54039   41100      0    1.70e+00    0    1.20e+00
2006 10 31  1130    54039   41400      0    1.72e+00    0    1.19e+00
2006 10 31  1135    54039   41700      0    1.67e+00    0    1.16e+00
2006 10 31  1140    54039   42000      0    1.72e+00    0    1.22e+00
2006 10 31  1145    54039   42300      0    1.72e+00    0    1.22e+00
2006 10 31  1150    54039   42600      0    1.72e+00    0    1.21e+00
2006 10 31  1155    54039   42900      0    1.73e+00    0    1.20e+00
2006 10 31  1200    54039   43200      0    1.71e+00    0    1.20e+00
2006 10 31  1205    54039   43500      0    1.72e+00    0    1.22e+00
2006 10 31  1210    54039   43800      0    1.71e+00    0    1.19e+00
2006 10 31  1215    54039   44100      0    1.69e+00    0    1.20e+00
2006 10 31  1220    54039   44400      0    1.73e+00    0    1.22e+00
2006 10 31  1225    54039   44700      0    1.71e+00    0    1.20e+00
2006 10 31  1230    54039   45000      0    1.70e+00    0    1.18e+00
2006 10 31  1235    54039   45300      0    1.69e+00    0    1.18e+00
2006 10 31  1240    54039   45600      0    1.72e+00    0    1.19e+00
2006 10 31  1245    54039   45900      0    1.69e+00    0    1.20e+00
2006 10 31  1250    54039   46200      0    1.72e+00    0    1.21e+00
2006 10 31  1255    54039   46500      0    1.71e+00    0    1.20e+00
2006 10 31  1300    54039   46800      0    1.72e+00    0    1.22e+00
2006 10 31  1305    54039   47100      0    1.68e+00    0    1.19e+00
2006 10 31  1310    54039   47400      0    1.74e+00    0    1.22e+00
2006 10 31  1315    54039   47700      0    1.70e+00    0    1.19e+00
2006 10 31  1320    54039   48000      0    1.72e+00    0    1.20e+00
2006 10 31  1325    54039   48300      0    1.70e+00    0    1.18e+00
2006 10 31  1330    54039   48600      0    1.70e+00    0    1.19e+00
2006 10 31  1335    54039   48900      0    1.69e+00    0    1.18e+00
2006 10 31  1340    54039   49200      0    1.73e+00    0    1.21e+00
2006 10 31  1345    54039   49500      0    1.69e+00    0    1.18e+00
2006 10 31  1350    54039   49800      0    1.71e+00    0    1.19e+00
2006 10 31  1355    54039   50100      0    1.69e+00    0    1.19e+00
2006 10 31  1400    54039   50400      0    1.73e+00    0    1.20e+00
2006 10 31  1405    54039   50700      0    1.73e+00    0    1.21e+00
2006 10 31  1410    54039   51000      0    1.68e+00    0    1.19e+00
2006 10 31  1415    54039   51300      0    1.69e+00    0    1.17e+00
2006 10 31  1420    54039   51600      0    1.71e+00    0    1.20e+00
2006 10 31  1425    54039   51900      0    1.72e+00    0    1.21e+00
2006 10 31  1430    54039   52200      0    1.73e+00    0    1.21e+00
2006 10 31  1435    54039   52500      0    1.67e+00    0    1.16e+00
2006 10 31  1440    54039   52800      0    1.73e+00    0    1.21e+00
2006 10 31  1445    54039   53100      0    1.69e+00    0    1.19e+00
2006 10 31  1450    54039   53400      0    1.74e+00    0    1.23e+00
2006 10 31  1455    54039   53700      0    1.71e+00    0    1.22e+00
2006 10 31  1500    54039   54000      0    1.70e+00    0    1.19e+00
2006 10 31  1505    54039   54300      0    1.72e+00    0    1.20e+00
2006 10 31  1510    54039   54600      0    1.66e+00    0    1.15e+00
2006 10 31  1515    54039   54900      0    1.66e+00    0    1.16e+00
2006 10 31  1520    54039   55200      0    1.72e+00    0    1.22e+00
2006 10 31  1525    54039   55500      0    1.72e+00    0    1.20e+00
2006 10 31  1530    54039   55800      0    1.69e+00    0    1.19e+00
2006 10 31  1535    54039   56100      0    1.73e+00    0    1.21e+00
2006 10 31  1540    54039   56400      0    1.72e+00    0    1.20e+00
2006 10 31  1545    54039   56700      0    1.73e+00    0    1.22e+00
2006 10 31  1550    54039   57000      0    1.72e+00    0    1.20e+00
2006 10 31  1555    54039   57300      0    1.69e+00    0    1.19e+00
2006 10 31  1600    54039   57600      0    1.69e+00    0    1.17e+00
2006 10 31  1605    54039   57900      0    1.66e+00    0    1.14e+00
2006 10 31  1610    54039   58200      0    1.71e+00    0    1.19e+00
2006 10 31  1615    54039   58500      0    1.70e+00    0    1.20e+00
2006 10 31  1620    54039   58800      0    1.72e+00    0    1.20e+00
2006 10 31  1625    54039   59100      0    1.73e+00    0    1.22e+00
2006 10 31  1630    54039   59400      0    1.71e+00    0    1.20e+00
2006 10 31  1635    54039   59700      0    1.70e+00    0    1.19e+00
2006 10 31  1640    54039   60000      0    1.72e+00    0    1.20e+00
2006 10 31  1645    54039   60300      0    1.68e+00    0    1.17e+00
2006 10 31  1650    54039   60600      0    1.72e+00    0    1.20e+00
2006 10 31  1655    54039   60900      0    1.70e+00    0    1.21e+00
2006 10 31  1700    54039   61200      0    1.74e+00    0    1.22e+00
2006 10 31  1705    54039   61500      0    1.71e+00    0    1.22e+00
2006 10 31  1710    54039   61800      0    1.72e+00    0    1.20e+00
2006 10 31  1715    54039   62100      0    1.71e+00    0    1.20e+00
2006 10 31  1720    54039   62400      0    1.71e+00    0    1.20e+00
2006 10 31  1725    54039   62700      0    1.72e+00    0    1.21e+00
2006 10 31  1730    54039   63000      0    1.69e+00    0    1.17e+00
2006 10 31  1735    54039   63300      0    1.69e+00    0    1.18e+00
2006 10 31  1740    54039   63600      0    1.74e+00    0    1.21e+00
2006 10 31  1745    54039   63900      0    1.75e+00    0    1.22e+00
2006 10 31  1750    54039   64200      0    1.75e+00    0    1.23e+00
2006 10 31  1755    54039   64500      0    1.69e+00    0    1.19e+00
2006 10 31  1800    54039   64800      0    1.70e+00    0    1.19e+00
2006 10 31  1805    54039   65100      0    1.70e+00    0    1.19e+00
2006 10 31  1810    54039   65400      0    1.71e+00    0    1.19e+00
2006 10 31  1815    54039   65700      0    1.71e+00    0    1.20e+00
2006 10 31  1820    54039   66000      0    1.72e+00    0    1.20e+00
2006 10 31  1825    54039   66300      0    1.73e+00    0    1.22e+00
2006 10 31  1830    54039   66600      0    1.71e+00    0    1.20e+00
2006 10 31  1835    54039   66900      0    1.65e+00    0    1.16e+00
2006 10 31  1840    54039   67200      0    1.69e+00    0    1.19e+00
2006 10 31  1845    54039   67500      0    1.70e+00    0    1.18e+00
2006 10 31  1850    54039   67800      0    1.72e+00    0    1.20e+00
2006 10 31  1855    54039   68100      0    1.71e+00    0    1.19e+00
2006 10 31  1900    54039   68400      0    1.73e+00    0    1.21e+00
2006 10 31  1905    54039   68700      0    1.71e+00    0    1.21e+00
2006 10 31  1910    54039   69000      0    1.69e+00    0    1.19e+00
2006 10 31  1915    54039   69300      0    1.76e+00    0    1.22e+00
2006 10 31  1920    54039   69600      0    1.71e+00    0    1.21e+00
2006 10 31  1925    54039   69900      0    1.70e+00    0    1.18e+00
2006 10 31  1930    54039   70200      0    1.71e+00    0    1.19e+00
2006 10 31  1935    54039   70500      0    1.71e+00    0    1.19e+00
2006 10 31  1940    54039   70800      0    1.76e+00    0    1.25e+00
2006 10 31  1945    54039   71100      0    1.71e+00    0    1.19e+00
2006 10 31  1950    54039   71400      0    1.69e+00    0    1.17e+00
2006 10 31  1955    54039   71700      0    1.70e+00    0    1.19e+00
2006 10 31  2000    54039   72000      0    1.73e+00    0    1.21e+00
2006 10 31  2005    54039   72300      0    1.72e+00    0    1.21e+00
2006 10 31  2010    54039   72600      0    1.71e+00    0    1.19e+00
2006 10 31  2015    54039   72900      0    1.73e+00    0    1.22e+00
2006 10 31  2020    54039   73200      0    1.76e+00    0    1.23e+00
2006 10 31  2025    54039   73500      0    1.74e+00    0    1.22e+00
2006 10 31  2030    54039   73800      0    1.71e+00    0    1.19e+00
2006 10 31  2035    54039   74100      0    1.73e+00    0    1.22e+00
2006 10 31  2040    54039   74400      0    1.73e+00    0    1.23e+00
2006 10 31  2045    54039   74700      0    1.71e+00    0    1.21e+00
2006 10 31  2050    54039   75000      0    1.73e+00    0    1.21e+00
2006 10 31  2055    54039   75300      0    1.75e+00    0    1.23e+00
2006 10 31  2100    54039   75600      0    1.67e+00    0    1.16e+00
2006 10 31  2105    54039   75900      0    1.73e+00    0    1.20e+00
2006 10 31  2110    54039   76200      9   -1.00e+05    9   -1.00e+05
2006 10 31  2115    54039   76500      9   -1.00e+05    9   -1.00e+05
2006 10 31  2120    54039   76800      0    1.70e+00    0    1.20e+00
2006 10 31  2125    54039   77100      0    1.69e+00    0    1.17e+00
2006 10 31  2130    54039   77400      0    1.68e+00    0    1.17e+00
2006 10 31  2135    54039   77700      0    1.70e+00    0    1.18e+00
2006 10 31  2140    54039   78000      0    1.69e+00    0    1.18e+00
2006 10 31  2145    54039   78300      0    1.71e+00    0    1.21e+00
2006 10 31  2150    54039   78600      0    1.73e+00    0    1.21e+00
2006 10 31  2155    54039   78900      0    1.71e+00    0    1.19e+00
2006 10 31  2200    54039   79200      0    1.73e+00    0    1.21e+00
2006 10 31  2205    54039   79500      0    1.75e+00    0    1.22e+00
2006 10 31  2210    54039   79800      0    1.72e+00    0    1.20e+00
2006 10 31  2215    54039   80100      0    1.72e+00    0    1.21e+00
2006 10 31  2220    54039   80400      0    1.74e+00    0    1.21e+00
2006 10 31  2225    54039   80700      0    1.75e+00    0    1.22e+00
2006 10 31  2230    54039   81000      0    1.71e+00    0    1.20e+00
2006 10 31  2235    54039   81300      0    1.76e+00    0    1.23e+00
2006 10 31  2240    54039   81600      0    1.71e+00    0    1.21e+00
2006 10 31  2245    54039   81900      0    1.67e+00    0    1.17e+00
2006 10 31  2250    54039   82200      0    1.70e+00    0    1.19e+00
2006 10 31  2255    54039   82500      0    1.75e+00    0    1.23e+00
2006 10 31  2300    54039   82800      0    1.75e+00    0    1.22e+00
2006 10 31  2305    54039   83100      0    1.70e+00    0    1.20e+00
2006 10 31  2310    54039   83400      0    1.74e+00    0    1.22e+00
2006 10 31  2315    54039   83700      0    1.71e+00    0    1.21e+00
2006 10 31  2320    54039   84000      0    1.70e+00    0    1.19e+00
2006 10 31  2325    54039   84300      0    1.72e+00    0    1.21e+00
2006 10 31  2330    54039   84600      0    1.75e+00    0    1.23e+00
2006 10 31  2335    54039   84900      0    1.68e+00    0    1.18e+00
2006 10 31  2340    54039   85200      0    1.76e+00    0    1.23e+00
2006 10 31  2345    54039   85500      0    1.71e+00    0    1.20e+00
2006 10 31  2350    54039   85800      0    1.74e+00    0    1.21e+00
2006 10 31  2355    54039   86100      0    1.73e+00    0    1.21e+00
