:Data_list: 20061015_ace_sis_5m.txt
:Created: 2006 Oct 16 0011 UT
# Prepared by the U.S. Dept. of Commerce, NOAA, Space Environment Center.
# Please send comments and suggestions to SEC.Webmaster@noaa.gov 
# 
# Units: proton flux p/cs2-sec-ster
# Status(S): 0 = nominal data, 1 to 8 = bad data record, 9 = no data
# Missing data values: -1.00e+05
# Source: ACE Satellite - Solar Isotope Spectrometer
#
# 5-minute averaged Real-time Integral Flux of High-energy Solar Protons
# 
#                 Modified Seconds
# UT Date   Time   Julian  of the      ---- Integral Proton Flux ----
# YR MO DA  HHMM     Day     Day       S    > 10 MeV    S    > 30 MeV
#--------------------------------------------------------------------
2006 10 15  0000    54023       0      0    1.64e+00    0    1.15e+00
2006 10 15  0005    54023     300      0    1.68e+00    0    1.18e+00
2006 10 15  0010    54023     600      0    1.67e+00    0    1.17e+00
2006 10 15  0015    54023     900      0    1.69e+00    0    1.20e+00
2006 10 15  0020    54023    1200      0    1.68e+00    0    1.17e+00
2006 10 15  0025    54023    1500      0    1.66e+00    0    1.16e+00
2006 10 15  0030    54023    1800      0    1.65e+00    0    1.15e+00
2006 10 15  0035    54023    2100      0    1.65e+00    0    1.16e+00
2006 10 15  0040    54023    2400      0    1.71e+00    0    1.21e+00
2006 10 15  0045    54023    2700      0    1.66e+00    0    1.16e+00
2006 10 15  0050    54023    3000      0    1.65e+00    0    1.18e+00
2006 10 15  0055    54023    3300      0    1.66e+00    0    1.16e+00
2006 10 15  0100    54023    3600      0    1.69e+00    0    1.18e+00
2006 10 15  0105    54023    3900      0    1.70e+00    0    1.19e+00
2006 10 15  0110    54023    4200      0    1.64e+00    0    1.16e+00
2006 10 15  0115    54023    4500      0    1.67e+00    0    1.17e+00
2006 10 15  0120    54023    4800      0    1.67e+00    0    1.17e+00
2006 10 15  0125    54023    5100      0    1.66e+00    0    1.17e+00
2006 10 15  0130    54023    5400      0    1.65e+00    0    1.15e+00
2006 10 15  0135    54023    5700      0    1.68e+00    0    1.19e+00
2006 10 15  0140    54023    6000      0    1.66e+00    0    1.15e+00
2006 10 15  0145    54023    6300      0    1.66e+00    0    1.16e+00
2006 10 15  0150    54023    6600      0    1.66e+00    0    1.16e+00
2006 10 15  0155    54023    6900      0    1.66e+00    0    1.16e+00
2006 10 15  0200    54023    7200      0    1.66e+00    0    1.17e+00
2006 10 15  0205    54023    7500      0    1.65e+00    0    1.16e+00
2006 10 15  0210    54023    7800      0    1.66e+00    0    1.16e+00
2006 10 15  0215    54023    8100      0    1.65e+00    0    1.15e+00
2006 10 15  0220    54023    8400      0    1.68e+00    0    1.17e+00
2006 10 15  0225    54023    8700      0    1.68e+00    0    1.18e+00
2006 10 15  0230    54023    9000      0    1.67e+00    0    1.16e+00
2006 10 15  0235    54023    9300      0    1.67e+00    0    1.17e+00
2006 10 15  0240    54023    9600      0    1.66e+00    0    1.14e+00
2006 10 15  0245    54023    9900      0    1.64e+00    0    1.16e+00
2006 10 15  0250    54023   10200      0    1.65e+00    0    1.15e+00
2006 10 15  0255    54023   10500      0    1.63e+00    0    1.14e+00
2006 10 15  0300    54023   10800      0    1.64e+00    0    1.15e+00
2006 10 15  0305    54023   11100      0    1.65e+00    0    1.15e+00
2006 10 15  0310    54023   11400      0    1.66e+00    0    1.16e+00
2006 10 15  0315    54023   11700      0    1.67e+00    0    1.18e+00
2006 10 15  0320    54023   12000      0    1.67e+00    0    1.17e+00
2006 10 15  0325    54023   12300      0    1.69e+00    0    1.18e+00
2006 10 15  0330    54023   12600      0    1.64e+00    0    1.16e+00
2006 10 15  0335    54023   12900      0    1.68e+00    0    1.18e+00
2006 10 15  0340    54023   13200      0    1.67e+00    0    1.16e+00
2006 10 15  0345    54023   13500      0    1.67e+00    0    1.15e+00
2006 10 15  0350    54023   13800      0    1.65e+00    0    1.15e+00
2006 10 15  0355    54023   14100      0    1.65e+00    0    1.14e+00
2006 10 15  0400    54023   14400      0    1.63e+00    0    1.14e+00
2006 10 15  0405    54023   14700      0    1.65e+00    0    1.16e+00
2006 10 15  0410    54023   15000      0    1.68e+00    0    1.19e+00
2006 10 15  0415    54023   15300      0    1.66e+00    0    1.17e+00
2006 10 15  0420    54023   15600      0    1.66e+00    0    1.17e+00
2006 10 15  0425    54023   15900      0    1.67e+00    0    1.17e+00
2006 10 15  0430    54023   16200      0    1.66e+00    0    1.15e+00
2006 10 15  0435    54023   16500      0    1.67e+00    0    1.17e+00
2006 10 15  0440    54023   16800      0    1.67e+00    0    1.16e+00
2006 10 15  0445    54023   17100      0    1.64e+00    0    1.14e+00
2006 10 15  0450    54023   17400      0    1.67e+00    0    1.17e+00
2006 10 15  0455    54023   17700      0    1.65e+00    0    1.17e+00
2006 10 15  0500    54023   18000      0    1.66e+00    0    1.16e+00
2006 10 15  0505    54023   18300      0    1.65e+00    0    1.16e+00
2006 10 15  0510    54023   18600      0    1.68e+00    0    1.17e+00
2006 10 15  0515    54023   18900      0    1.66e+00    0    1.16e+00
2006 10 15  0520    54023   19200      0    1.64e+00    0    1.15e+00
2006 10 15  0525    54023   19500      0    1.65e+00    0    1.16e+00
2006 10 15  0530    54023   19800      0    1.67e+00    0    1.17e+00
2006 10 15  0535    54023   20100      0    1.67e+00    0    1.16e+00
2006 10 15  0540    54023   20400      0    1.68e+00    0    1.17e+00
2006 10 15  0545    54023   20700      0    1.61e+00    0    1.13e+00
2006 10 15  0550    54023   21000      0    1.69e+00    0    1.18e+00
2006 10 15  0555    54023   21300      0    1.68e+00    0    1.18e+00
2006 10 15  0600    54023   21600      0    1.68e+00    0    1.18e+00
2006 10 15  0605    54023   21900      0    1.67e+00    0    1.16e+00
2006 10 15  0610    54023   22200      0    1.68e+00    0    1.18e+00
2006 10 15  0615    54023   22500      0    1.65e+00    0    1.16e+00
2006 10 15  0620    54023   22800      0    1.68e+00    0    1.19e+00
2006 10 15  0625    54023   23100      0    1.70e+00    0    1.20e+00
2006 10 15  0630    54023   23400      0    1.66e+00    0    1.17e+00
2006 10 15  0635    54023   23700      0    1.65e+00    0    1.14e+00
2006 10 15  0640    54023   24000      0    1.69e+00    0    1.18e+00
2006 10 15  0645    54023   24300      0    1.70e+00    0    1.18e+00
2006 10 15  0650    54023   24600      0    1.70e+00    0    1.17e+00
2006 10 15  0655    54023   24900      0    1.69e+00    0    1.20e+00
2006 10 15  0700    54023   25200      0    1.67e+00    0    1.18e+00
2006 10 15  0705    54023   25500      0    1.70e+00    0    1.20e+00
2006 10 15  0710    54023   25800      0    1.69e+00    0    1.18e+00
2006 10 15  0715    54023   26100      0    1.71e+00    0    1.19e+00
2006 10 15  0720    54023   26400      0    1.68e+00    0    1.18e+00
2006 10 15  0725    54023   26700      0    1.70e+00    0    1.18e+00
2006 10 15  0730    54023   27000      0    1.66e+00    0    1.16e+00
2006 10 15  0735    54023   27300      0    1.66e+00    0    1.16e+00
2006 10 15  0740    54023   27600      0    1.71e+00    0    1.21e+00
2006 10 15  0745    54023   27900      0    1.68e+00    0    1.18e+00
2006 10 15  0750    54023   28200      0    1.65e+00    0    1.15e+00
2006 10 15  0755    54023   28500      0    1.67e+00    0    1.17e+00
2006 10 15  0800    54023   28800      0    1.66e+00    0    1.15e+00
2006 10 15  0805    54023   29100      0    1.66e+00    0    1.16e+00
2006 10 15  0810    54023   29400      0    1.66e+00    0    1.16e+00
2006 10 15  0815    54023   29700      0    1.66e+00    0    1.17e+00
2006 10 15  0820    54023   30000      0    1.66e+00    0    1.17e+00
2006 10 15  0825    54023   30300      0    1.68e+00    0    1.20e+00
2006 10 15  0830    54023   30600      0    1.64e+00    0    1.15e+00
2006 10 15  0835    54023   30900      0    1.67e+00    0    1.17e+00
2006 10 15  0840    54023   31200      0    1.68e+00    0    1.17e+00
2006 10 15  0845    54023   31500      0    1.66e+00    0    1.17e+00
2006 10 15  0850    54023   31800      0    1.63e+00    0    1.14e+00
2006 10 15  0855    54023   32100      0    1.66e+00    0    1.16e+00
2006 10 15  0900    54023   32400      0    1.67e+00    0    1.18e+00
2006 10 15  0905    54023   32700      0    1.70e+00    0    1.18e+00
2006 10 15  0910    54023   33000      0    1.73e+00    0    1.21e+00
2006 10 15  0915    54023   33300      0    1.71e+00    0    1.20e+00
2006 10 15  0920    54023   33600      0    1.67e+00    0    1.17e+00
2006 10 15  0925    54023   33900      0    1.72e+00    0    1.22e+00
2006 10 15  0930    54023   34200      0    1.70e+00    0    1.19e+00
2006 10 15  0935    54023   34500      0    1.69e+00    0    1.19e+00
2006 10 15  0940    54023   34800      0    1.69e+00    0    1.19e+00
2006 10 15  0945    54023   35100      0    1.71e+00    0    1.19e+00
2006 10 15  0950    54023   35400      0    1.67e+00    0    1.17e+00
2006 10 15  0955    54023   35700      0    1.67e+00    0    1.17e+00
2006 10 15  1000    54023   36000      0    1.64e+00    0    1.14e+00
2006 10 15  1005    54023   36300      0    1.67e+00    0    1.16e+00
2006 10 15  1010    54023   36600      0    1.68e+00    0    1.16e+00
2006 10 15  1015    54023   36900      0    1.67e+00    0    1.17e+00
2006 10 15  1020    54023   37200      0    1.66e+00    0    1.18e+00
2006 10 15  1025    54023   37500      0    1.71e+00    0    1.20e+00
2006 10 15  1030    54023   37800      0    1.66e+00    0    1.15e+00
2006 10 15  1035    54023   38100      0    1.66e+00    0    1.16e+00
2006 10 15  1040    54023   38400      0    1.66e+00    0    1.16e+00
2006 10 15  1045    54023   38700      0    1.70e+00    0    1.20e+00
2006 10 15  1050    54023   39000      0    1.68e+00    0    1.18e+00
2006 10 15  1055    54023   39300      0    1.67e+00    0    1.16e+00
2006 10 15  1100    54023   39600      0    1.68e+00    0    1.18e+00
2006 10 15  1105    54023   39900      0    1.67e+00    0    1.18e+00
2006 10 15  1110    54023   40200      0    1.70e+00    0    1.20e+00
2006 10 15  1115    54023   40500      0    1.64e+00    0    1.16e+00
2006 10 15  1120    54023   40800      0    1.68e+00    0    1.16e+00
2006 10 15  1125    54023   41100      0    1.68e+00    0    1.17e+00
2006 10 15  1130    54023   41400      0    1.69e+00    0    1.19e+00
2006 10 15  1135    54023   41700      0    1.69e+00    0    1.19e+00
2006 10 15  1140    54023   42000      0    1.68e+00    0    1.18e+00
2006 10 15  1145    54023   42300      0    1.71e+00    0    1.20e+00
2006 10 15  1150    54023   42600      0    1.71e+00    0    1.19e+00
2006 10 15  1155    54023   42900      0    1.73e+00    0    1.21e+00
2006 10 15  1200    54023   43200      0    1.72e+00    0    1.20e+00
2006 10 15  1205    54023   43500      0    1.66e+00    0    1.17e+00
2006 10 15  1210    54023   43800      0    1.63e+00    0    1.13e+00
2006 10 15  1215    54023   44100      0    1.64e+00    0    1.16e+00
2006 10 15  1220    54023   44400      0    1.66e+00    0    1.15e+00
2006 10 15  1225    54023   44700      0    1.67e+00    0    1.17e+00
2006 10 15  1230    54023   45000      0    1.69e+00    0    1.18e+00
2006 10 15  1235    54023   45300      0    1.68e+00    0    1.18e+00
2006 10 15  1240    54023   45600      0    1.67e+00    0    1.16e+00
2006 10 15  1245    54023   45900      0    1.69e+00    0    1.17e+00
2006 10 15  1250    54023   46200      0    1.67e+00    0    1.18e+00
2006 10 15  1255    54023   46500      0    1.66e+00    0    1.16e+00
2006 10 15  1300    54023   46800      0    1.61e+00    0    1.12e+00
2006 10 15  1305    54023   47100      0    1.67e+00    0    1.17e+00
2006 10 15  1310    54023   47400      0    1.65e+00    0    1.15e+00
2006 10 15  1315    54023   47700      0    1.70e+00    0    1.19e+00
2006 10 15  1320    54023   48000      0    1.66e+00    0    1.16e+00
2006 10 15  1325    54023   48300      0    1.66e+00    0    1.16e+00
2006 10 15  1330    54023   48600      0    1.67e+00    0    1.17e+00
2006 10 15  1335    54023   48900      0    1.64e+00    0    1.15e+00
2006 10 15  1340    54023   49200      0    1.68e+00    0    1.17e+00
2006 10 15  1345    54023   49500      0    1.64e+00    0    1.15e+00
2006 10 15  1350    54023   49800      0    1.69e+00    0    1.18e+00
2006 10 15  1355    54023   50100      0    1.67e+00    0    1.17e+00
2006 10 15  1400    54023   50400      0    1.68e+00    0    1.17e+00
2006 10 15  1405    54023   50700      0    1.68e+00    0    1.18e+00
2006 10 15  1410    54023   51000      0    1.69e+00    0    1.18e+00
2006 10 15  1415    54023   51300      0    1.69e+00    0    1.18e+00
2006 10 15  1420    54023   51600      0    1.64e+00    0    1.15e+00
2006 10 15  1425    54023   51900      0    1.62e+00    0    1.14e+00
2006 10 15  1430    54023   52200      0    1.69e+00    0    1.19e+00
2006 10 15  1435    54023   52500      0    1.69e+00    0    1.18e+00
2006 10 15  1440    54023   52800      0    1.67e+00    0    1.17e+00
2006 10 15  1445    54023   53100      0    1.66e+00    0    1.17e+00
2006 10 15  1450    54023   53400      0    1.69e+00    0    1.18e+00
2006 10 15  1455    54023   53700      0    1.66e+00    0    1.16e+00
2006 10 15  1500    54023   54000      0    1.69e+00    0    1.18e+00
2006 10 15  1505    54023   54300      0    1.65e+00    0    1.16e+00
2006 10 15  1510    54023   54600      0    1.66e+00    0    1.17e+00
2006 10 15  1515    54023   54900      0    1.65e+00    0    1.17e+00
2006 10 15  1520    54023   55200      0    1.65e+00    0    1.16e+00
2006 10 15  1525    54023   55500      0    1.66e+00    0    1.18e+00
2006 10 15  1530    54023   55800      0    1.71e+00    0    1.20e+00
2006 10 15  1535    54023   56100      0    1.66e+00    0    1.17e+00
2006 10 15  1540    54023   56400      0    1.63e+00    0    1.15e+00
2006 10 15  1545    54023   56700      0    1.68e+00    0    1.17e+00
2006 10 15  1550    54023   57000      0    1.66e+00    0    1.16e+00
2006 10 15  1555    54023   57300      0    1.69e+00    0    1.19e+00
2006 10 15  1600    54023   57600      0    1.74e+00    0    1.22e+00
2006 10 15  1605    54023   57900      0    1.67e+00    0    1.17e+00
2006 10 15  1610    54023   58200      0    7.91e+02    0    1.17e+00
2006 10 15  1615    54023   58500      0    3.43e+01    0    8.03e+00
2006 10 15  1620    54023   58800      0    6.23e+03    0    2.52e+01
2006 10 15  1625    54023   59100      0    1.99e+02    0    3.61e+01
2006 10 15  1630    54023   59400      0    8.89e+01    0    9.20e+00
2006 10 15  1635    54023   59700      0    4.16e+03    0    1.37e+01
2006 10 15  1640    54023   60000      0    1.74e+03    0    5.02e+01
2006 10 15  1645    54023   60300      0    7.96e+01    0    9.14e+00
2006 10 15  1650    54023   60600      0    2.40e+02    0    2.22e+00
2006 10 15  1655    54023   60900      0    4.96e+01    0    5.99e+00
2006 10 15  1700    54023   61200      0    1.07e+02    0    1.11e+01
2006 10 15  1705    54023   61500      0    6.10e+01    0    1.21e+00
2006 10 15  1710    54023   61800      0    5.33e+01    0    6.89e+00
2006 10 15  1715    54023   62100      0    4.58e+01    0    8.30e-01
2006 10 15  1720    54023   62400      0    2.53e+02    0    1.25e+01
2006 10 15  1725    54023   62700      0    1.01e+02    0    2.75e+01
2006 10 15  1730    54023   63000      0    9.77e+01    0    9.20e+00
2006 10 15  1735    54023   63300      0    7.09e+01    0    9.14e+00
2006 10 15  1740    54023   63600      0    4.15e+03    0    6.22e+01
2006 10 15  1745    54023   63900      0    1.12e+03    0    1.37e+01
2006 10 15  1750    54023   64200      0    4.83e+01    0    2.77e+01
2006 10 15  1755    54023   64500      0    8.75e+01    0    3.89e+01
2006 10 15  1800    54023   64800      0    7.10e+01    0    9.18e+00
2006 10 15  1805    54023   65100      0    5.92e+02    0    6.71e+01
2006 10 15  1810    54023   65400      0    6.05e+01    0    1.42e+01
2006 10 15  1815    54023   65700      0    6.74e+01    0    3.43e+01
2006 10 15  1820    54023   66000      0    6.18e+01    0    7.41e+00
2006 10 15  1825    54023   66300      0    3.15e+03    0    4.25e+01
2006 10 15  1830    54023   66600      0    6.10e+01    0    3.03e+01
2006 10 15  1835    54023   66900      0    4.16e+03    0    1.37e+01
2006 10 15  1840    54023   67200      0    6.84e+01    0    4.46e+01
2006 10 15  1845    54023   67500      0    4.16e+03    0    1.37e+01
2006 10 15  1850    54023   67800      0    1.92e+03    0    3.49e+01
2006 10 15  1855    54023   68100      0    8.88e+02    0    4.26e+01
2006 10 15  1900    54023   68400      0    1.53e+00    0    1.05e+00
2006 10 15  1905    54023   68700      0    1.67e+00    0    1.17e+00
2006 10 15  1910    54023   69000      0    1.68e+00    0    1.17e+00
2006 10 15  1915    54023   69300      0    1.65e+00    0    1.16e+00
2006 10 15  1920    54023   69600      0    1.67e+00    0    1.17e+00
2006 10 15  1925    54023   69900      0    1.67e+00    0    1.16e+00
2006 10 15  1930    54023   70200      0    1.67e+00    0    1.17e+00
2006 10 15  1935    54023   70500      0    1.67e+00    0    1.18e+00
2006 10 15  1940    54023   70800      0    1.72e+00    0    1.20e+00
2006 10 15  1945    54023   71100      0    1.70e+00    0    1.19e+00
2006 10 15  1950    54023   71400      0    1.68e+00    0    1.17e+00
2006 10 15  1955    54023   71700      0    1.67e+00    0    1.18e+00
2006 10 15  2000    54023   72000      0    1.67e+00    0    1.17e+00
2006 10 15  2005    54023   72300      0    1.67e+00    0    1.18e+00
2006 10 15  2010    54023   72600      0    1.66e+00    0    1.16e+00
2006 10 15  2015    54023   72900      0    1.70e+00    0    1.17e+00
2006 10 15  2020    54023   73200      0    1.71e+00    0    1.20e+00
2006 10 15  2025    54023   73500      0    1.68e+00    0    1.17e+00
2006 10 15  2030    54023   73800      0    1.68e+00    0    1.17e+00
2006 10 15  2035    54023   74100      0    1.66e+00    0    1.16e+00
2006 10 15  2040    54023   74400      0    1.72e+00    0    1.19e+00
2006 10 15  2045    54023   74700      0    1.74e+00    0    1.21e+00
2006 10 15  2050    54023   75000      0    1.73e+00    0    1.20e+00
2006 10 15  2055    54023   75300      0    1.72e+00    0    1.21e+00
2006 10 15  2100    54023   75600      0    1.70e+00    0    1.19e+00
2006 10 15  2105    54023   75900      0    1.69e+00    0    1.18e+00
2006 10 15  2110    54023   76200      0    1.64e+00    0    1.17e+00
2006 10 15  2115    54023   76500      0    1.68e+00    0    1.17e+00
2006 10 15  2120    54023   76800      0    1.66e+00    0    1.16e+00
2006 10 15  2125    54023   77100      0    1.64e+00    0    1.14e+00
2006 10 15  2130    54023   77400      0    1.67e+00    0    1.17e+00
2006 10 15  2135    54023   77700      0    1.64e+00    0    1.15e+00
2006 10 15  2140    54023   78000      0    1.68e+00    0    1.19e+00
2006 10 15  2145    54023   78300      9   -1.00e+05    9   -1.00e+05
2006 10 15  2150    54023   78600      9   -1.00e+05    9   -1.00e+05
2006 10 15  2155    54023   78900      9   -1.00e+05    9   -1.00e+05
2006 10 15  2200    54023   79200      9   -1.00e+05    9   -1.00e+05
2006 10 15  2205    54023   79500      9   -1.00e+05    9   -1.00e+05
2006 10 15  2210    54023   79800      9   -1.00e+05    9   -1.00e+05
2006 10 15  2215    54023   80100      0    1.69e+00    0    1.19e+00
2006 10 15  2220    54023   80400      0    1.67e+00    0    1.17e+00
2006 10 15  2225    54023   80700      0    1.69e+00    0    1.20e+00
2006 10 15  2230    54023   81000      0    1.68e+00    0    1.17e+00
2006 10 15  2235    54023   81300      0    1.68e+00    0    1.18e+00
2006 10 15  2240    54023   81600      0    1.71e+00    0    1.19e+00
2006 10 15  2245    54023   81900      0    1.66e+00    0    1.17e+00
2006 10 15  2250    54023   82200      0    1.68e+00    0    1.18e+00
2006 10 15  2255    54023   82500      0    1.70e+00    0    1.20e+00
2006 10 15  2300    54023   82800      0    1.72e+00    0    1.21e+00
2006 10 15  2305    54023   83100      0    1.72e+00    0    1.20e+00
2006 10 15  2310    54023   83400      0    1.70e+00    0    1.19e+00
2006 10 15  2315    54023   83700      0    1.68e+00    0    1.17e+00
2006 10 15  2320    54023   84000      0    1.69e+00    0    1.19e+00
2006 10 15  2325    54023   84300      0    1.66e+00    0    1.17e+00
2006 10 15  2330    54023   84600      0    1.68e+00    0    1.17e+00
2006 10 15  2335    54023   84900      0    1.67e+00    0    1.17e+00
2006 10 15  2340    54023   85200      0    1.66e+00    0    1.14e+00
2006 10 15  2345    54023   85500      0    1.69e+00    0    1.18e+00
2006 10 15  2350    54023   85800      0    1.63e+00    0    1.14e+00
2006 10 15  2355    54023   86100      0    1.66e+00    0    1.16e+00
