:Data_list: 20061124_ace_sis_5m.txt
:Created: 2006 Nov 25 0011 UT
# Prepared by the U.S. Dept. of Commerce, NOAA, Space Environment Center.
# Please send comments and suggestions to SEC.Webmaster@noaa.gov 
# 
# Units: proton flux p/cs2-sec-ster
# Status(S): 0 = nominal data, 1 to 8 = bad data record, 9 = no data
# Missing data values: -1.00e+05
# Source: ACE Satellite - Solar Isotope Spectrometer
#
# 5-minute averaged Real-time Integral Flux of High-energy Solar Protons
# 
#                 Modified Seconds
# UT Date   Time   Julian  of the      ---- Integral Proton Flux ----
# YR MO DA  HHMM     Day     Day       S    > 10 MeV    S    > 30 MeV
#--------------------------------------------------------------------
2006 11 24  0000    54063       0      0    1.69e+00    0    1.19e+00
2006 11 24  0005    54063     300      0    1.73e+00    0    1.21e+00
2006 11 24  0010    54063     600      0    1.74e+00    0    1.23e+00
2006 11 24  0015    54063     900      0    1.73e+00    0    1.22e+00
2006 11 24  0020    54063    1200      0    1.72e+00    0    1.21e+00
2006 11 24  0025    54063    1500      0    1.69e+00    0    1.18e+00
2006 11 24  0030    54063    1800      0    1.70e+00    0    1.20e+00
2006 11 24  0035    54063    2100      0    1.67e+00    0    1.17e+00
2006 11 24  0040    54063    2400      0    1.73e+00    0    1.23e+00
2006 11 24  0045    54063    2700      0    1.73e+00    0    1.21e+00
2006 11 24  0050    54063    3000      0    1.73e+00    0    1.21e+00
2006 11 24  0055    54063    3300      0    1.69e+00    0    1.18e+00
2006 11 24  0100    54063    3600      0    1.69e+00    0    1.17e+00
2006 11 24  0105    54063    3900      0    1.71e+00    0    1.18e+00
2006 11 24  0110    54063    4200      0    1.71e+00    0    1.19e+00
2006 11 24  0115    54063    4500      0    1.71e+00    0    1.20e+00
2006 11 24  0120    54063    4800      0    1.71e+00    0    1.20e+00
2006 11 24  0125    54063    5100      0    1.67e+00    0    1.16e+00
2006 11 24  0130    54063    5400      0    1.71e+00    0    1.21e+00
2006 11 24  0135    54063    5700      0    1.71e+00    0    1.20e+00
2006 11 24  0140    54063    6000      0    1.73e+00    0    1.20e+00
2006 11 24  0145    54063    6300      0    1.69e+00    0    1.19e+00
2006 11 24  0150    54063    6600      0    1.70e+00    0    1.20e+00
2006 11 24  0155    54063    6900      0    1.73e+00    0    1.21e+00
2006 11 24  0200    54063    7200      0    1.70e+00    0    1.19e+00
2006 11 24  0205    54063    7500      0    1.70e+00    0    1.20e+00
2006 11 24  0210    54063    7800      0    1.71e+00    0    1.20e+00
2006 11 24  0215    54063    8100      0    1.71e+00    0    1.19e+00
2006 11 24  0220    54063    8400      0    1.74e+00    0    1.20e+00
2006 11 24  0225    54063    8700      0    1.69e+00    0    1.19e+00
2006 11 24  0230    54063    9000      0    1.73e+00    0    1.20e+00
2006 11 24  0235    54063    9300      0    1.74e+00    0    1.22e+00
2006 11 24  0240    54063    9600      0    1.69e+00    0    1.20e+00
2006 11 24  0245    54063    9900      0    1.71e+00    0    1.20e+00
2006 11 24  0250    54063   10200      0    1.73e+00    0    1.21e+00
2006 11 24  0255    54063   10500      0    1.72e+00    0    1.20e+00
2006 11 24  0300    54063   10800      0    1.70e+00    0    1.19e+00
2006 11 24  0305    54063   11100      0    1.72e+00    0    1.21e+00
2006 11 24  0310    54063   11400      0    1.69e+00    0    1.19e+00
2006 11 24  0315    54063   11700      0    1.72e+00    0    1.20e+00
2006 11 24  0320    54063   12000      0    1.70e+00    0    1.18e+00
2006 11 24  0325    54063   12300      0    1.71e+00    0    1.19e+00
2006 11 24  0330    54063   12600      0    1.72e+00    0    1.21e+00
2006 11 24  0335    54063   12900      0    1.73e+00    0    1.21e+00
2006 11 24  0340    54063   13200      0    1.69e+00    0    1.18e+00
2006 11 24  0345    54063   13500      0    1.70e+00    0    1.19e+00
2006 11 24  0350    54063   13800      0    1.69e+00    0    1.18e+00
2006 11 24  0355    54063   14100      0    1.71e+00    0    1.21e+00
2006 11 24  0400    54063   14400      0    1.68e+00    0    1.17e+00
2006 11 24  0405    54063   14700      0    1.68e+00    0    1.17e+00
2006 11 24  0410    54063   15000      0    1.71e+00    0    1.21e+00
2006 11 24  0415    54063   15300      0    1.71e+00    0    1.20e+00
2006 11 24  0420    54063   15600      0    1.70e+00    0    1.18e+00
2006 11 24  0425    54063   15900      0    1.69e+00    0    1.18e+00
2006 11 24  0430    54063   16200      0    1.71e+00    0    1.19e+00
2006 11 24  0435    54063   16500      0    1.70e+00    0    1.20e+00
2006 11 24  0440    54063   16800      0    1.75e+00    0    1.22e+00
2006 11 24  0445    54063   17100      0    1.71e+00    0    1.19e+00
2006 11 24  0450    54063   17400      0    1.73e+00    0    1.22e+00
2006 11 24  0455    54063   17700      0    1.71e+00    0    1.18e+00
2006 11 24  0500    54063   18000      0    1.71e+00    0    1.20e+00
2006 11 24  0505    54063   18300      0    1.75e+00    0    1.23e+00
2006 11 24  0510    54063   18600      0    1.69e+00    0    1.19e+00
2006 11 24  0515    54063   18900      0    1.69e+00    0    1.19e+00
2006 11 24  0520    54063   19200      0    1.68e+00    0    1.17e+00
2006 11 24  0525    54063   19500      0    1.72e+00    0    1.21e+00
2006 11 24  0530    54063   19800      0    1.66e+00    0    1.16e+00
2006 11 24  0535    54063   20100      0    1.68e+00    0    1.19e+00
2006 11 24  0540    54063   20400      0    1.67e+00    0    1.16e+00
2006 11 24  0545    54063   20700      0    1.70e+00    0    1.19e+00
2006 11 24  0550    54063   21000      0    1.71e+00    0    1.20e+00
2006 11 24  0555    54063   21300      0    1.71e+00    0    1.19e+00
2006 11 24  0600    54063   21600      0    1.78e+00    0    1.24e+00
2006 11 24  0605    54063   21900      0    1.69e+00    0    1.18e+00
2006 11 24  0610    54063   22200      0    1.76e+00    0    1.23e+00
2006 11 24  0615    54063   22500      0    1.70e+00    0    1.20e+00
2006 11 24  0620    54063   22800      0    1.66e+00    0    1.16e+00
2006 11 24  0625    54063   23100      0    1.73e+00    0    1.22e+00
2006 11 24  0630    54063   23400      0    1.71e+00    0    1.19e+00
2006 11 24  0635    54063   23700      0    1.68e+00    0    1.19e+00
2006 11 24  0640    54063   24000      0    1.66e+00    0    1.17e+00
2006 11 24  0645    54063   24300      0    1.73e+00    0    1.24e+00
2006 11 24  0650    54063   24600      0    1.77e+00    0    1.24e+00
2006 11 24  0655    54063   24900      0    1.70e+00    0    1.19e+00
2006 11 24  0700    54063   25200      0    1.68e+00    0    1.17e+00
2006 11 24  0705    54063   25500      0    1.74e+00    0    1.21e+00
2006 11 24  0710    54063   25800      0    1.67e+00    0    1.17e+00
2006 11 24  0715    54063   26100      0    1.71e+00    0    1.19e+00
2006 11 24  0720    54063   26400      0    1.69e+00    0    1.19e+00
2006 11 24  0725    54063   26700      0    1.69e+00    0    1.20e+00
2006 11 24  0730    54063   27000      0    1.71e+00    0    1.20e+00
2006 11 24  0735    54063   27300      0    1.71e+00    0    1.20e+00
2006 11 24  0740    54063   27600      0    1.70e+00    0    1.19e+00
2006 11 24  0745    54063   27900      0    1.72e+00    0    1.22e+00
2006 11 24  0750    54063   28200      0    1.70e+00    0    1.18e+00
2006 11 24  0755    54063   28500      0    1.71e+00    0    1.21e+00
2006 11 24  0800    54063   28800      0    1.68e+00    0    1.18e+00
2006 11 24  0805    54063   29100      0    1.75e+00    0    1.24e+00
2006 11 24  0810    54063   29400      0    1.75e+00    0    1.23e+00
2006 11 24  0815    54063   29700      0    1.75e+00    0    1.23e+00
2006 11 24  0820    54063   30000      0    1.71e+00    0    1.20e+00
2006 11 24  0825    54063   30300      0    1.72e+00    0    1.20e+00
2006 11 24  0830    54063   30600      0    1.69e+00    0    1.19e+00
2006 11 24  0835    54063   30900      0    1.71e+00    0    1.19e+00
2006 11 24  0840    54063   31200      0    1.73e+00    0    1.21e+00
2006 11 24  0845    54063   31500      0    1.69e+00    0    1.19e+00
2006 11 24  0850    54063   31800      0    1.72e+00    0    1.21e+00
2006 11 24  0855    54063   32100      0    1.70e+00    0    1.18e+00
2006 11 24  0900    54063   32400      0    1.71e+00    0    1.21e+00
2006 11 24  0905    54063   32700      0    1.64e+00    0    1.16e+00
2006 11 24  0910    54063   33000      0    1.71e+00    0    1.20e+00
2006 11 24  0915    54063   33300      0    1.68e+00    0    1.19e+00
2006 11 24  0920    54063   33600      0    1.68e+00    0    1.18e+00
2006 11 24  0925    54063   33900      0    1.74e+00    0    1.21e+00
2006 11 24  0930    54063   34200      0    1.72e+00    0    1.22e+00
2006 11 24  0935    54063   34500      0    1.69e+00    0    1.18e+00
2006 11 24  0940    54063   34800      0    1.75e+00    0    1.24e+00
2006 11 24  0945    54063   35100      0    1.69e+00    0    1.17e+00
2006 11 24  0950    54063   35400      0    1.68e+00    0    1.17e+00
2006 11 24  0955    54063   35700      0    1.70e+00    0    1.20e+00
2006 11 24  1000    54063   36000      0    1.69e+00    0    1.18e+00
2006 11 24  1005    54063   36300      0    1.64e+00    0    1.15e+00
2006 11 24  1010    54063   36600      0    1.69e+00    0    1.19e+00
2006 11 24  1015    54063   36900      0    1.70e+00    0    1.19e+00
2006 11 24  1020    54063   37200      0    1.70e+00    0    1.21e+00
2006 11 24  1025    54063   37500      0    1.71e+00    0    1.20e+00
2006 11 24  1030    54063   37800      0    1.72e+00    0    1.20e+00
2006 11 24  1035    54063   38100      0    1.67e+00    0    1.17e+00
2006 11 24  1040    54063   38400      0    1.71e+00    0    1.20e+00
2006 11 24  1045    54063   38700      0    1.71e+00    0    1.19e+00
2006 11 24  1050    54063   39000      0    1.71e+00    0    1.20e+00
2006 11 24  1055    54063   39300      0    1.68e+00    0    1.18e+00
2006 11 24  1100    54063   39600      0    1.68e+00    0    1.18e+00
2006 11 24  1105    54063   39900      0    1.73e+00    0    1.23e+00
2006 11 24  1110    54063   40200      0    1.77e+00    0    1.24e+00
2006 11 24  1115    54063   40500      0    1.71e+00    0    1.19e+00
2006 11 24  1120    54063   40800      0    1.70e+00    0    1.19e+00
2006 11 24  1125    54063   41100      0    1.73e+00    0    1.22e+00
2006 11 24  1130    54063   41400      0    1.68e+00    0    1.17e+00
2006 11 24  1135    54063   41700      0    1.71e+00    0    1.20e+00
2006 11 24  1140    54063   42000      0    1.70e+00    0    1.19e+00
2006 11 24  1145    54063   42300      0    1.71e+00    0    1.21e+00
2006 11 24  1150    54063   42600      0    1.66e+00    0    1.17e+00
2006 11 24  1155    54063   42900      0    1.71e+00    0    1.21e+00
2006 11 24  1200    54063   43200      0    1.73e+00    0    1.22e+00
2006 11 24  1205    54063   43500      0    1.61e+00    0    1.11e+00
2006 11 24  1210    54063   43800      0    1.74e+00    0    1.21e+00
2006 11 24  1215    54063   44100      0    1.67e+00    0    1.17e+00
2006 11 24  1220    54063   44400      0    1.69e+00    0    1.19e+00
2006 11 24  1225    54063   44700      0    1.72e+00    0    1.22e+00
2006 11 24  1230    54063   45000      0    1.62e+00    0    1.12e+00
2006 11 24  1235    54063   45300      0    1.67e+00    0    1.16e+00
2006 11 24  1240    54063   45600      0    1.70e+00    0    1.19e+00
2006 11 24  1245    54063   45900      0    1.69e+00    0    1.19e+00
2006 11 24  1250    54063   46200      0    1.72e+00    0    1.20e+00
2006 11 24  1255    54063   46500      0    1.72e+00    0    1.19e+00
2006 11 24  1300    54063   46800      0    1.67e+00    0    1.18e+00
2006 11 24  1305    54063   47100      0    1.65e+00    0    1.15e+00
2006 11 24  1310    54063   47400      0    1.71e+00    0    1.20e+00
2006 11 24  1315    54063   47700      0    1.70e+00    0    1.18e+00
2006 11 24  1320    54063   48000      0    1.71e+00    0    1.19e+00
2006 11 24  1325    54063   48300      0    1.70e+00    0    1.19e+00
2006 11 24  1330    54063   48600      0    1.71e+00    0    1.21e+00
2006 11 24  1335    54063   48900      0    1.69e+00    0    1.19e+00
2006 11 24  1340    54063   49200      0    1.68e+00    0    1.18e+00
2006 11 24  1345    54063   49500      0    1.68e+00    0    1.17e+00
2006 11 24  1350    54063   49800      0    1.68e+00    0    1.17e+00
2006 11 24  1355    54063   50100      0    1.68e+00    0    1.18e+00
2006 11 24  1400    54063   50400      0    1.68e+00    0    1.17e+00
2006 11 24  1405    54063   50700      0    1.72e+00    0    1.21e+00
2006 11 24  1410    54063   51000      0    1.71e+00    0    1.21e+00
2006 11 24  1415    54063   51300      0    1.68e+00    0    1.18e+00
2006 11 24  1420    54063   51600      0    1.71e+00    0    1.21e+00
2006 11 24  1425    54063   51900      0    1.70e+00    0    1.19e+00
2006 11 24  1430    54063   52200      0    1.68e+00    0    1.17e+00
2006 11 24  1435    54063   52500      0    1.71e+00    0    1.20e+00
2006 11 24  1440    54063   52800      0    1.67e+00    0    1.16e+00
2006 11 24  1445    54063   53100      0    1.70e+00    0    1.20e+00
2006 11 24  1450    54063   53400      0    1.70e+00    0    1.20e+00
2006 11 24  1455    54063   53700      0    1.69e+00    0    1.19e+00
2006 11 24  1500    54063   54000      0    1.65e+00    0    1.16e+00
2006 11 24  1505    54063   54300      0    1.70e+00    0    1.20e+00
2006 11 24  1510    54063   54600      0    1.71e+00    0    1.18e+00
2006 11 24  1515    54063   54900      0    1.67e+00    0    1.16e+00
2006 11 24  1520    54063   55200      0    1.75e+00    0    1.21e+00
2006 11 24  1525    54063   55500      0    1.69e+00    0    1.17e+00
2006 11 24  1530    54063   55800      0    1.68e+00    0    1.17e+00
2006 11 24  1535    54063   56100      0    1.70e+00    0    1.19e+00
2006 11 24  1540    54063   56400      0    1.72e+00    0    1.20e+00
2006 11 24  1545    54063   56700      0    1.72e+00    0    1.20e+00
2006 11 24  1550    54063   57000      0    1.68e+00    0    1.19e+00
2006 11 24  1555    54063   57300      0    1.73e+00    0    1.21e+00
2006 11 24  1600    54063   57600      0    1.67e+00    0    1.17e+00
2006 11 24  1605    54063   57900      0    1.71e+00    0    1.20e+00
2006 11 24  1610    54063   58200      0    1.75e+00    0    1.23e+00
2006 11 24  1615    54063   58500      0    1.74e+00    0    1.23e+00
2006 11 24  1620    54063   58800      0    1.71e+00    0    1.20e+00
2006 11 24  1625    54063   59100      0    1.71e+00    0    1.21e+00
2006 11 24  1630    54063   59400      0    1.74e+00    0    1.21e+00
2006 11 24  1635    54063   59700      0    1.75e+00    0    1.22e+00
2006 11 24  1640    54063   60000      0    1.71e+00    0    1.21e+00
2006 11 24  1645    54063   60300      0    1.69e+00    0    1.18e+00
2006 11 24  1650    54063   60600      0    1.70e+00    0    1.22e+00
2006 11 24  1655    54063   60900      0    1.73e+00    0    1.22e+00
2006 11 24  1700    54063   61200      0    1.67e+00    0    1.17e+00
2006 11 24  1705    54063   61500      0    1.66e+00    0    1.16e+00
2006 11 24  1710    54063   61800      0    1.72e+00    0    1.21e+00
2006 11 24  1715    54063   62100      0    1.71e+00    0    1.20e+00
2006 11 24  1720    54063   62400      0    1.68e+00    0    1.19e+00
2006 11 24  1725    54063   62700      0    1.71e+00    0    1.20e+00
2006 11 24  1730    54063   63000      0    1.71e+00    0    1.19e+00
2006 11 24  1735    54063   63300      0    1.70e+00    0    1.19e+00
2006 11 24  1740    54063   63600      0    1.72e+00    0    1.20e+00
2006 11 24  1745    54063   63900      0    1.69e+00    0    1.18e+00
2006 11 24  1750    54063   64200      0    1.70e+00    0    1.19e+00
2006 11 24  1755    54063   64500      0    1.74e+00    0    1.22e+00
2006 11 24  1800    54063   64800      0    1.72e+00    0    1.21e+00
2006 11 24  1805    54063   65100      0    1.67e+00    0    1.16e+00
2006 11 24  1810    54063   65400      0    1.69e+00    0    1.19e+00
2006 11 24  1815    54063   65700      0    1.67e+00    0    1.16e+00
2006 11 24  1820    54063   66000      0    1.68e+00    0    1.20e+00
2006 11 24  1825    54063   66300      0    1.69e+00    0    1.18e+00
2006 11 24  1830    54063   66600      0    1.70e+00    0    1.19e+00
2006 11 24  1835    54063   66900      0    1.66e+00    0    1.16e+00
2006 11 24  1840    54063   67200      0    1.67e+00    0    1.18e+00
2006 11 24  1845    54063   67500      0    1.70e+00    0    1.19e+00
2006 11 24  1850    54063   67800      0    1.75e+00    0    1.22e+00
2006 11 24  1855    54063   68100      0    1.70e+00    0    1.22e+00
2006 11 24  1900    54063   68400      0    1.69e+00    0    1.18e+00
2006 11 24  1905    54063   68700      0    1.69e+00    0    1.19e+00
2006 11 24  1910    54063   69000      0    1.72e+00    0    1.22e+00
2006 11 24  1915    54063   69300      0    1.70e+00    0    1.18e+00
2006 11 24  1920    54063   69600      0    1.71e+00    0    1.20e+00
2006 11 24  1925    54063   69900      0    1.70e+00    0    1.18e+00
2006 11 24  1930    54063   70200      0    1.71e+00    0    1.20e+00
2006 11 24  1935    54063   70500      0    1.68e+00    0    1.18e+00
2006 11 24  1940    54063   70800      0    1.73e+00    0    1.22e+00
2006 11 24  1945    54063   71100      0    1.74e+00    0    1.22e+00
2006 11 24  1950    54063   71400      0    1.72e+00    0    1.21e+00
2006 11 24  1955    54063   71700      0    1.71e+00    0    1.21e+00
2006 11 24  2000    54063   72000      0    1.69e+00    0    1.19e+00
2006 11 24  2005    54063   72300      0    1.70e+00    0    1.20e+00
2006 11 24  2010    54063   72600      0    1.68e+00    0    1.18e+00
2006 11 24  2015    54063   72900      0    1.73e+00    0    1.21e+00
2006 11 24  2020    54063   73200      0    1.73e+00    0    1.22e+00
2006 11 24  2025    54063   73500      0    1.72e+00    0    1.21e+00
2006 11 24  2030    54063   73800      0    1.72e+00    0    1.21e+00
2006 11 24  2035    54063   74100      9   -1.00e+05    9   -1.00e+05
2006 11 24  2040    54063   74400      9   -1.00e+05    9   -1.00e+05
2006 11 24  2045    54063   74700      9   -1.00e+05    9   -1.00e+05
2006 11 24  2050    54063   75000      9   -1.00e+05    9   -1.00e+05
2006 11 24  2055    54063   75300      9   -1.00e+05    9   -1.00e+05
2006 11 24  2100    54063   75600      9   -1.00e+05    9   -1.00e+05
2006 11 24  2105    54063   75900      0    1.74e+00    0    1.22e+00
2006 11 24  2110    54063   76200      0    1.72e+00    0    1.21e+00
2006 11 24  2115    54063   76500      0    1.76e+00    0    1.24e+00
2006 11 24  2120    54063   76800      0    1.69e+00    0    1.18e+00
2006 11 24  2125    54063   77100      0    1.72e+00    0    1.20e+00
2006 11 24  2130    54063   77400      0    1.71e+00    0    1.20e+00
2006 11 24  2135    54063   77700      0    1.70e+00    0    1.19e+00
2006 11 24  2140    54063   78000      0    1.71e+00    0    1.20e+00
2006 11 24  2145    54063   78300      0    1.72e+00    0    1.20e+00
2006 11 24  2150    54063   78600      0    1.71e+00    0    1.20e+00
2006 11 24  2155    54063   78900      0    1.72e+00    0    1.20e+00
2006 11 24  2200    54063   79200      0    1.72e+00    0    1.20e+00
2006 11 24  2205    54063   79500      0    1.75e+00    0    1.22e+00
2006 11 24  2210    54063   79800      0    1.73e+00    0    1.23e+00
2006 11 24  2215    54063   80100      0    1.71e+00    0    1.18e+00
2006 11 24  2220    54063   80400      0    1.72e+00    0    1.21e+00
2006 11 24  2225    54063   80700      0    1.76e+00    0    1.23e+00
2006 11 24  2230    54063   81000      0    1.73e+00    0    1.22e+00
2006 11 24  2235    54063   81300      0    1.74e+00    0    1.23e+00
2006 11 24  2240    54063   81600      0    1.72e+00    0    1.21e+00
2006 11 24  2245    54063   81900      0    1.71e+00    0    1.21e+00
2006 11 24  2250    54063   82200      0    1.78e+00    0    1.25e+00
2006 11 24  2255    54063   82500      0    1.77e+00    0    1.24e+00
2006 11 24  2300    54063   82800      0    1.71e+00    0    1.20e+00
2006 11 24  2305    54063   83100      0    1.73e+00    0    1.21e+00
2006 11 24  2310    54063   83400      0    1.73e+00    0    1.22e+00
2006 11 24  2315    54063   83700      0    1.72e+00    0    1.20e+00
2006 11 24  2320    54063   84000      0    1.72e+00    0    1.20e+00
2006 11 24  2325    54063   84300      0    1.75e+00    0    1.22e+00
2006 11 24  2330    54063   84600      0    1.71e+00    0    1.23e+00
2006 11 24  2335    54063   84900      0    1.73e+00    0    1.21e+00
2006 11 24  2340    54063   85200      0    1.73e+00    0    1.21e+00
2006 11 24  2345    54063   85500      0    1.72e+00    0    1.21e+00
2006 11 24  2350    54063   85800      0    1.72e+00    0    1.21e+00
2006 11 24  2355    54063   86100      0    1.74e+00    0    1.22e+00
