:Data_list: 20060510_ace_sis_5m.txt
:Created: 2006 May 11 0011 UT
# Prepared by the U.S. Dept. of Commerce, NOAA, Space Environment Center.
# Please send comments and suggestions to SEC.Webmaster@noaa.gov 
# 
# Units: proton flux p/cs2-sec-ster
# Status(S): 0 = nominal data, 1 to 8 = bad data record, 9 = no data
# Missing data values: -1.00e+05
# Source: ACE Satellite - Solar Isotope Spectrometer
#
# 5-minute averaged Real-time Integral Flux of High-energy Solar Protons
# 
#                 Modified Seconds
# UT Date   Time   Julian  of the      ---- Integral Proton Flux ----
# YR MO DA  HHMM     Day     Day       S    > 10 MeV    S    > 30 MeV
#--------------------------------------------------------------------
2006 05 10  0000    53865       0      0    1.62e+00    0    1.14e+00
2006 05 10  0005    53865     300      0    1.63e+00    0    1.14e+00
2006 05 10  0010    53865     600      0    1.64e+00    0    1.15e+00
2006 05 10  0015    53865     900      0    1.65e+00    0    1.16e+00
2006 05 10  0020    53865    1200      0    1.62e+00    0    1.13e+00
2006 05 10  0025    53865    1500      0    1.66e+00    0    1.17e+00
2006 05 10  0030    53865    1800      0    1.60e+00    0    1.12e+00
2006 05 10  0035    53865    2100      0    1.63e+00    0    1.14e+00
2006 05 10  0040    53865    2400      0    1.60e+00    0    1.12e+00
2006 05 10  0045    53865    2700      0    1.62e+00    0    1.14e+00
2006 05 10  0050    53865    3000      0    1.60e+00    0    1.12e+00
2006 05 10  0055    53865    3300      0    1.59e+00    0    1.13e+00
2006 05 10  0100    53865    3600      0    1.60e+00    0    1.12e+00
2006 05 10  0105    53865    3900      0    1.62e+00    0    1.13e+00
2006 05 10  0110    53865    4200      0    1.59e+00    0    1.11e+00
2006 05 10  0115    53865    4500      0    1.61e+00    0    1.13e+00
2006 05 10  0120    53865    4800      0    1.58e+00    0    1.11e+00
2006 05 10  0125    53865    5100      0    1.60e+00    0    1.13e+00
2006 05 10  0130    53865    5400      0    1.62e+00    0    1.13e+00
2006 05 10  0135    53865    5700      0    1.62e+00    0    1.13e+00
2006 05 10  0140    53865    6000      0    1.62e+00    0    1.14e+00
2006 05 10  0145    53865    6300      0    1.62e+00    0    1.13e+00
2006 05 10  0150    53865    6600      0    1.60e+00    0    1.12e+00
2006 05 10  0155    53865    6900      0    1.59e+00    0    1.12e+00
2006 05 10  0200    53865    7200      0    1.63e+00    0    1.15e+00
2006 05 10  0205    53865    7500      0    1.64e+00    0    1.14e+00
2006 05 10  0210    53865    7800      0    1.60e+00    0    1.13e+00
2006 05 10  0215    53865    8100      0    1.61e+00    0    1.13e+00
2006 05 10  0220    53865    8400      0    1.61e+00    0    1.12e+00
2006 05 10  0225    53865    8700      0    1.59e+00    0    1.12e+00
2006 05 10  0230    53865    9000      0    1.64e+00    0    1.16e+00
2006 05 10  0235    53865    9300      0    1.63e+00    0    1.15e+00
2006 05 10  0240    53865    9600      0    1.63e+00    0    1.14e+00
2006 05 10  0245    53865    9900      0    1.58e+00    0    1.11e+00
2006 05 10  0250    53865   10200      0    1.61e+00    0    1.14e+00
2006 05 10  0255    53865   10500      0    1.60e+00    0    1.12e+00
2006 05 10  0300    53865   10800      0    1.62e+00    0    1.14e+00
2006 05 10  0305    53865   11100      0    1.61e+00    0    1.14e+00
2006 05 10  0310    53865   11400      0    1.58e+00    0    1.11e+00
2006 05 10  0315    53865   11700      0    1.58e+00    0    1.09e+00
2006 05 10  0320    53865   12000      0    1.64e+00    0    1.14e+00
2006 05 10  0325    53865   12300      0    1.59e+00    0    1.11e+00
2006 05 10  0330    53865   12600      0    1.59e+00    0    1.11e+00
2006 05 10  0335    53865   12900      0    1.59e+00    0    1.11e+00
2006 05 10  0340    53865   13200      0    1.61e+00    0    1.12e+00
2006 05 10  0345    53865   13500      0    1.65e+00    0    1.16e+00
2006 05 10  0350    53865   13800      0    1.58e+00    0    1.10e+00
2006 05 10  0355    53865   14100      0    1.61e+00    0    1.12e+00
2006 05 10  0400    53865   14400      0    1.61e+00    0    1.10e+00
2006 05 10  0405    53865   14700      0    1.60e+00    0    1.12e+00
2006 05 10  0410    53865   15000      0    1.61e+00    0    1.13e+00
2006 05 10  0415    53865   15300      0    1.60e+00    0    1.11e+00
2006 05 10  0420    53865   15600      0    1.64e+00    0    1.15e+00
2006 05 10  0425    53865   15900      0    1.60e+00    0    1.13e+00
2006 05 10  0430    53865   16200      0    1.60e+00    0    1.12e+00
2006 05 10  0435    53865   16500      0    1.61e+00    0    1.11e+00
2006 05 10  0440    53865   16800      0    1.63e+00    0    1.15e+00
2006 05 10  0445    53865   17100      0    1.63e+00    0    1.14e+00
2006 05 10  0450    53865   17400      0    1.59e+00    0    1.12e+00
2006 05 10  0455    53865   17700      0    1.59e+00    0    1.11e+00
2006 05 10  0500    53865   18000      0    1.59e+00    0    1.10e+00
2006 05 10  0505    53865   18300      0    1.61e+00    0    1.14e+00
2006 05 10  0510    53865   18600      0    1.62e+00    0    1.13e+00
2006 05 10  0515    53865   18900      0    1.61e+00    0    1.12e+00
2006 05 10  0520    53865   19200      0    1.57e+00    0    1.09e+00
2006 05 10  0525    53865   19500      0    1.59e+00    0    1.11e+00
2006 05 10  0530    53865   19800      0    1.59e+00    0    1.12e+00
2006 05 10  0535    53865   20100      0    1.59e+00    0    1.12e+00
2006 05 10  0540    53865   20400      0    1.64e+00    0    1.14e+00
2006 05 10  0545    53865   20700      0    1.58e+00    0    1.11e+00
2006 05 10  0550    53865   21000      0    1.62e+00    0    1.14e+00
2006 05 10  0555    53865   21300      0    1.62e+00    0    1.13e+00
2006 05 10  0600    53865   21600      0    1.63e+00    0    1.14e+00
2006 05 10  0605    53865   21900      0    1.62e+00    0    1.14e+00
2006 05 10  0610    53865   22200      0    1.58e+00    0    1.12e+00
2006 05 10  0615    53865   22500      0    1.59e+00    0    1.10e+00
2006 05 10  0620    53865   22800      0    1.59e+00    0    1.10e+00
2006 05 10  0625    53865   23100      0    1.62e+00    0    1.14e+00
2006 05 10  0630    53865   23400      0    1.62e+00    0    1.13e+00
2006 05 10  0635    53865   23700      0    1.64e+00    0    1.14e+00
2006 05 10  0640    53865   24000      0    1.60e+00    0    1.11e+00
2006 05 10  0645    53865   24300      0    1.58e+00    0    1.11e+00
2006 05 10  0650    53865   24600      0    1.64e+00    0    1.16e+00
2006 05 10  0655    53865   24900      0    1.62e+00    0    1.14e+00
2006 05 10  0700    53865   25200      0    1.65e+00    0    1.14e+00
2006 05 10  0705    53865   25500      0    1.59e+00    0    1.12e+00
2006 05 10  0710    53865   25800      0    1.57e+00    0    1.10e+00
2006 05 10  0715    53865   26100      0    1.58e+00    0    1.11e+00
2006 05 10  0720    53865   26400      0    1.62e+00    0    1.14e+00
2006 05 10  0725    53865   26700      0    1.61e+00    0    1.13e+00
2006 05 10  0730    53865   27000      0    1.60e+00    0    1.12e+00
2006 05 10  0735    53865   27300      0    1.62e+00    0    1.14e+00
2006 05 10  0740    53865   27600      0    1.59e+00    0    1.12e+00
2006 05 10  0745    53865   27900      0    1.63e+00    0    1.15e+00
2006 05 10  0750    53865   28200      0    1.58e+00    0    1.12e+00
2006 05 10  0755    53865   28500      0    1.62e+00    0    1.14e+00
2006 05 10  0800    53865   28800      0    1.64e+00    0    1.16e+00
2006 05 10  0805    53865   29100      0    1.60e+00    0    1.12e+00
2006 05 10  0810    53865   29400      0    1.63e+00    0    1.14e+00
2006 05 10  0815    53865   29700      0    1.63e+00    0    1.15e+00
2006 05 10  0820    53865   30000      0    1.60e+00    0    1.13e+00
2006 05 10  0825    53865   30300      0    1.59e+00    0    1.12e+00
2006 05 10  0830    53865   30600      0    1.63e+00    0    1.16e+00
2006 05 10  0835    53865   30900      0    1.62e+00    0    1.12e+00
2006 05 10  0840    53865   31200      0    1.62e+00    0    1.13e+00
2006 05 10  0845    53865   31500      0    1.60e+00    0    1.13e+00
2006 05 10  0850    53865   31800      0    1.62e+00    0    1.15e+00
2006 05 10  0855    53865   32100      0    1.62e+00    0    1.13e+00
2006 05 10  0900    53865   32400      0    1.60e+00    0    1.13e+00
2006 05 10  0905    53865   32700      0    1.60e+00    0    1.13e+00
2006 05 10  0910    53865   33000      0    1.62e+00    0    1.14e+00
2006 05 10  0915    53865   33300      0    1.67e+00    0    1.16e+00
2006 05 10  0920    53865   33600      0    1.60e+00    0    1.12e+00
2006 05 10  0925    53865   33900      0    1.65e+00    0    1.17e+00
2006 05 10  0930    53865   34200      0    1.63e+00    0    1.14e+00
2006 05 10  0935    53865   34500      0    1.61e+00    0    1.13e+00
2006 05 10  0940    53865   34800      0    1.62e+00    0    1.15e+00
2006 05 10  0945    53865   35100      0    1.61e+00    0    1.13e+00
2006 05 10  0950    53865   35400      0    1.61e+00    0    1.13e+00
2006 05 10  0955    53865   35700      0    1.61e+00    0    1.13e+00
2006 05 10  1000    53865   36000      0    1.59e+00    0    1.12e+00
2006 05 10  1005    53865   36300      0    1.64e+00    0    1.16e+00
2006 05 10  1010    53865   36600      0    1.62e+00    0    1.14e+00
2006 05 10  1015    53865   36900      0    1.59e+00    0    1.12e+00
2006 05 10  1020    53865   37200      0    1.63e+00    0    1.13e+00
2006 05 10  1025    53865   37500      0    1.62e+00    0    1.15e+00
2006 05 10  1030    53865   37800      0    1.60e+00    0    1.12e+00
2006 05 10  1035    53865   38100      0    1.57e+00    0    1.09e+00
2006 05 10  1040    53865   38400      0    1.62e+00    0    1.14e+00
2006 05 10  1045    53865   38700      0    1.58e+00    0    1.11e+00
2006 05 10  1050    53865   39000      0    1.62e+00    0    1.14e+00
2006 05 10  1055    53865   39300      0    1.63e+00    0    1.15e+00
2006 05 10  1100    53865   39600      0    1.63e+00    0    1.15e+00
2006 05 10  1105    53865   39900      0    1.63e+00    0    1.15e+00
2006 05 10  1110    53865   40200      0    1.60e+00    0    1.13e+00
2006 05 10  1115    53865   40500      0    1.65e+00    0    1.15e+00
2006 05 10  1120    53865   40800      0    1.59e+00    0    1.11e+00
2006 05 10  1125    53865   41100      0    1.60e+00    0    1.10e+00
2006 05 10  1130    53865   41400      0    1.57e+00    0    1.09e+00
2006 05 10  1135    53865   41700      0    1.59e+00    0    1.12e+00
2006 05 10  1140    53865   42000      0    1.60e+00    0    1.12e+00
2006 05 10  1145    53865   42300      0    1.62e+00    0    1.13e+00
2006 05 10  1150    53865   42600      0    1.65e+00    0    1.16e+00
2006 05 10  1155    53865   42900      0    1.63e+00    0    1.14e+00
2006 05 10  1200    53865   43200      0    1.61e+00    0    1.12e+00
2006 05 10  1205    53865   43500      0    1.62e+00    0    1.13e+00
2006 05 10  1210    53865   43800      0    1.60e+00    0    1.12e+00
2006 05 10  1215    53865   44100      0    1.60e+00    0    1.12e+00
2006 05 10  1220    53865   44400      0    1.60e+00    0    1.13e+00
2006 05 10  1225    53865   44700      0    1.62e+00    0    1.14e+00
2006 05 10  1230    53865   45000      0    1.62e+00    0    1.12e+00
2006 05 10  1235    53865   45300      0    1.63e+00    0    1.14e+00
2006 05 10  1240    53865   45600      0    1.60e+00    0    1.12e+00
2006 05 10  1245    53865   45900      0    1.58e+00    0    1.11e+00
2006 05 10  1250    53865   46200      0    1.60e+00    0    1.13e+00
2006 05 10  1255    53865   46500      0    1.61e+00    0    1.13e+00
2006 05 10  1300    53865   46800      0    1.60e+00    0    1.12e+00
2006 05 10  1305    53865   47100      0    1.63e+00    0    1.15e+00
2006 05 10  1310    53865   47400      0    1.58e+00    0    1.11e+00
2006 05 10  1315    53865   47700      0    1.60e+00    0    1.11e+00
2006 05 10  1320    53865   48000      0    1.63e+00    0    1.13e+00
2006 05 10  1325    53865   48300      0    1.59e+00    0    1.11e+00
2006 05 10  1330    53865   48600      0    1.64e+00    0    1.15e+00
2006 05 10  1335    53865   48900      0    1.61e+00    0    1.12e+00
2006 05 10  1340    53865   49200      0    1.60e+00    0    1.13e+00
2006 05 10  1345    53865   49500      0    1.63e+00    0    1.16e+00
2006 05 10  1350    53865   49800      0    1.66e+00    0    1.16e+00
2006 05 10  1355    53865   50100      0    1.60e+00    0    1.12e+00
2006 05 10  1400    53865   50400      0    1.60e+00    0    1.12e+00
2006 05 10  1405    53865   50700      0    1.60e+00    0    1.11e+00
2006 05 10  1410    53865   51000      0    1.63e+00    0    1.14e+00
2006 05 10  1415    53865   51300      0    1.61e+00    0    1.13e+00
2006 05 10  1420    53865   51600      0    1.61e+00    0    1.12e+00
2006 05 10  1425    53865   51900      0    1.61e+00    0    1.12e+00
2006 05 10  1430    53865   52200      0    1.65e+00    0    1.14e+00
2006 05 10  1435    53865   52500      0    1.63e+00    0    1.14e+00
2006 05 10  1440    53865   52800      0    1.65e+00    0    1.16e+00
2006 05 10  1445    53865   53100      0    1.61e+00    0    1.13e+00
2006 05 10  1450    53865   53400      0    1.60e+00    0    1.12e+00
2006 05 10  1455    53865   53700      0    1.64e+00    0    1.15e+00
2006 05 10  1500    53865   54000      0    1.61e+00    0    1.13e+00
2006 05 10  1505    53865   54300      0    1.64e+00    0    1.15e+00
2006 05 10  1510    53865   54600      0    1.63e+00    0    1.14e+00
2006 05 10  1515    53865   54900      0    1.60e+00    0    1.13e+00
2006 05 10  1520    53865   55200      0    1.63e+00    0    1.15e+00
2006 05 10  1525    53865   55500      0    1.64e+00    0    1.15e+00
2006 05 10  1530    53865   55800      0    1.62e+00    0    1.13e+00
2006 05 10  1535    53865   56100      0    1.59e+00    0    1.11e+00
2006 05 10  1540    53865   56400      0    1.64e+00    0    1.17e+00
2006 05 10  1545    53865   56700      0    1.62e+00    0    1.14e+00
2006 05 10  1550    53865   57000      0    1.58e+00    0    1.11e+00
2006 05 10  1555    53865   57300      0    1.62e+00    0    1.12e+00
2006 05 10  1600    53865   57600      0    1.63e+00    0    1.15e+00
2006 05 10  1605    53865   57900      0    1.64e+00    0    1.15e+00
2006 05 10  1610    53865   58200      0    1.65e+00    0    1.16e+00
2006 05 10  1615    53865   58500      0    1.60e+00    0    1.11e+00
2006 05 10  1620    53865   58800      0    1.62e+00    0    1.13e+00
2006 05 10  1625    53865   59100      0    1.57e+00    0    1.09e+00
2006 05 10  1630    53865   59400      0    1.60e+00    0    1.11e+00
2006 05 10  1635    53865   59700      0    1.65e+00    0    1.15e+00
2006 05 10  1640    53865   60000      0    1.58e+00    0    1.11e+00
2006 05 10  1645    53865   60300      0    1.63e+00    0    1.14e+00
2006 05 10  1650    53865   60600      0    1.65e+00    0    1.16e+00
2006 05 10  1655    53865   60900      0    1.61e+00    0    1.14e+00
2006 05 10  1700    53865   61200      0    1.60e+00    0    1.12e+00
2006 05 10  1705    53865   61500      0    1.62e+00    0    1.14e+00
2006 05 10  1710    53865   61800      0    1.60e+00    0    1.12e+00
2006 05 10  1715    53865   62100      0    1.62e+00    0    1.14e+00
2006 05 10  1720    53865   62400      0    1.64e+00    0    1.15e+00
2006 05 10  1725    53865   62700      0    1.62e+00    0    1.13e+00
2006 05 10  1730    53865   63000      0    1.61e+00    0    1.13e+00
2006 05 10  1735    53865   63300      0    1.62e+00    0    1.15e+00
2006 05 10  1740    53865   63600      0    1.65e+00    0    1.17e+00
2006 05 10  1745    53865   63900      0    1.60e+00    0    1.13e+00
2006 05 10  1750    53865   64200      0    1.63e+00    0    1.14e+00
2006 05 10  1755    53865   64500      0    1.60e+00    0    1.12e+00
2006 05 10  1800    53865   64800      0    1.65e+00    0    1.16e+00
2006 05 10  1805    53865   65100      0    1.59e+00    0    1.11e+00
2006 05 10  1810    53865   65400      0    1.63e+00    0    1.15e+00
2006 05 10  1815    53865   65700      0    1.58e+00    0    1.12e+00
2006 05 10  1820    53865   66000      0    1.57e+00    0    1.09e+00
2006 05 10  1825    53865   66300      0    1.60e+00    0    1.12e+00
2006 05 10  1830    53865   66600      0    1.65e+00    0    1.14e+00
2006 05 10  1835    53865   66900      0    1.58e+00    0    1.11e+00
2006 05 10  1840    53865   67200      0    1.58e+00    0    1.10e+00
2006 05 10  1845    53865   67500      0    1.60e+00    0    1.11e+00
2006 05 10  1850    53865   67800      0    1.59e+00    0    1.13e+00
2006 05 10  1855    53865   68100      0    1.62e+00    0    1.13e+00
2006 05 10  1900    53865   68400      0    1.59e+00    0    1.11e+00
2006 05 10  1905    53865   68700      0    1.63e+00    0    1.17e+00
2006 05 10  1910    53865   69000      0    1.61e+00    0    1.12e+00
2006 05 10  1915    53865   69300      0    1.60e+00    0    1.10e+00
2006 05 10  1920    53865   69600      0    1.61e+00    0    1.13e+00
2006 05 10  1925    53865   69900      0    1.62e+00    0    1.13e+00
2006 05 10  1930    53865   70200      0    1.68e+00    0    1.17e+00
2006 05 10  1935    53865   70500      0    1.62e+00    0    1.14e+00
2006 05 10  1940    53865   70800      0    1.60e+00    0    1.12e+00
2006 05 10  1945    53865   71100      0    1.60e+00    0    1.11e+00
2006 05 10  1950    53865   71400      0    1.61e+00    0    1.13e+00
2006 05 10  1955    53865   71700      0    1.57e+00    0    1.09e+00
2006 05 10  2000    53865   72000      0    1.65e+00    0    1.15e+00
2006 05 10  2005    53865   72300      0    1.62e+00    0    1.13e+00
2006 05 10  2010    53865   72600      0    1.61e+00    0    1.12e+00
2006 05 10  2015    53865   72900      0    1.59e+00    0    1.12e+00
2006 05 10  2020    53865   73200      0    1.59e+00    0    1.12e+00
2006 05 10  2025    53865   73500      0    1.61e+00    0    1.13e+00
2006 05 10  2030    53865   73800      0    1.59e+00    0    1.12e+00
2006 05 10  2035    53865   74100      0    1.62e+00    0    1.13e+00
2006 05 10  2040    53865   74400      0    1.61e+00    0    1.12e+00
2006 05 10  2045    53865   74700      0    1.63e+00    0    1.14e+00
2006 05 10  2050    53865   75000      0    1.60e+00    0    1.12e+00
2006 05 10  2055    53865   75300      0    1.62e+00    0    1.13e+00
2006 05 10  2100    53865   75600      0    1.58e+00    0    1.10e+00
2006 05 10  2105    53865   75900      0    1.64e+00    0    1.16e+00
2006 05 10  2110    53865   76200      0    1.59e+00    0    1.10e+00
2006 05 10  2115    53865   76500      0    1.58e+00    0    1.11e+00
2006 05 10  2120    53865   76800      0    1.63e+00    0    1.14e+00
2006 05 10  2125    53865   77100      0    1.57e+00    0    1.10e+00
2006 05 10  2130    53865   77400      0    1.61e+00    0    1.13e+00
2006 05 10  2135    53865   77700      0    1.58e+00    0    1.11e+00
2006 05 10  2140    53865   78000      0    1.62e+00    0    1.14e+00
2006 05 10  2145    53865   78300      0    1.68e+00    0    1.18e+00
2006 05 10  2150    53865   78600      0    1.61e+00    0    1.14e+00
2006 05 10  2155    53865   78900      0    1.62e+00    0    1.14e+00
2006 05 10  2200    53865   79200      0    1.62e+00    0    1.14e+00
2006 05 10  2205    53865   79500      0    1.63e+00    0    1.14e+00
2006 05 10  2210    53865   79800      0    1.60e+00    0    1.13e+00
2006 05 10  2215    53865   80100      0    1.61e+00    0    1.14e+00
2006 05 10  2220    53865   80400      0    1.63e+00    0    1.15e+00
2006 05 10  2225    53865   80700      0    1.64e+00    0    1.15e+00
2006 05 10  2230    53865   81000      0    1.63e+00    0    1.14e+00
2006 05 10  2235    53865   81300      0    1.61e+00    0    1.13e+00
2006 05 10  2240    53865   81600      0    1.58e+00    0    1.11e+00
2006 05 10  2245    53865   81900      0    1.59e+00    0    1.11e+00
2006 05 10  2250    53865   82200      0    1.60e+00    0    1.12e+00
2006 05 10  2255    53865   82500      0    1.60e+00    0    1.12e+00
2006 05 10  2300    53865   82800      0    1.61e+00    0    1.13e+00
2006 05 10  2305    53865   83100      0    1.63e+00    0    1.14e+00
2006 05 10  2310    53865   83400      0    1.63e+00    0    1.14e+00
2006 05 10  2315    53865   83700      0    1.62e+00    0    1.14e+00
2006 05 10  2320    53865   84000      0    1.63e+00    0    1.15e+00
2006 05 10  2325    53865   84300      0    1.63e+00    0    1.14e+00
2006 05 10  2330    53865   84600      0    1.59e+00    0    1.11e+00
2006 05 10  2335    53865   84900      0    1.59e+00    0    1.12e+00
2006 05 10  2340    53865   85200      0    1.60e+00    0    1.12e+00
2006 05 10  2345    53865   85500      0    1.61e+00    0    1.14e+00
2006 05 10  2350    53865   85800      0    1.59e+00    0    1.12e+00
2006 05 10  2355    53865   86100      0    1.60e+00    0    1.11e+00
