:Data_list: 20060902_ace_sis_5m.txt
:Created: 2006 Sep 03 0011 UT
# Prepared by the U.S. Dept. of Commerce, NOAA, Space Environment Center.
# Please send comments and suggestions to SEC.Webmaster@noaa.gov 
# 
# Units: proton flux p/cs2-sec-ster
# Status(S): 0 = nominal data, 1 to 8 = bad data record, 9 = no data
# Missing data values: -1.00e+05
# Source: ACE Satellite - Solar Isotope Spectrometer
#
# 5-minute averaged Real-time Integral Flux of High-energy Solar Protons
# 
#                 Modified Seconds
# UT Date   Time   Julian  of the      ---- Integral Proton Flux ----
# YR MO DA  HHMM     Day     Day       S    > 10 MeV    S    > 30 MeV
#--------------------------------------------------------------------
2006 09 02  0000    53980       0      0    1.60e+00    0    1.12e+00
2006 09 02  0005    53980     300      0    1.61e+00    0    1.12e+00
2006 09 02  0010    53980     600      0    1.63e+00    0    1.13e+00
2006 09 02  0015    53980     900      0    1.56e+00    0    1.09e+00
2006 09 02  0020    53980    1200      0    1.58e+00    0    1.10e+00
2006 09 02  0025    53980    1500      0    1.61e+00    0    1.12e+00
2006 09 02  0030    53980    1800      0    1.58e+00    0    1.09e+00
2006 09 02  0035    53980    2100      0    1.61e+00    0    1.12e+00
2006 09 02  0040    53980    2400      0    1.62e+00    0    1.13e+00
2006 09 02  0045    53980    2700      0    1.58e+00    0    1.10e+00
2006 09 02  0050    53980    3000      0    1.59e+00    0    1.10e+00
2006 09 02  0055    53980    3300      0    1.57e+00    0    1.09e+00
2006 09 02  0100    53980    3600      0    1.56e+00    0    1.09e+00
2006 09 02  0105    53980    3900      0    1.63e+00    0    1.15e+00
2006 09 02  0110    53980    4200      0    1.59e+00    0    1.11e+00
2006 09 02  0115    53980    4500      0    1.60e+00    0    1.12e+00
2006 09 02  0120    53980    4800      0    1.61e+00    0    1.13e+00
2006 09 02  0125    53980    5100      0    1.61e+00    0    1.12e+00
2006 09 02  0130    53980    5400      0    1.66e+00    0    1.16e+00
2006 09 02  0135    53980    5700      0    1.58e+00    0    1.10e+00
2006 09 02  0140    53980    6000      0    1.55e+00    0    1.07e+00
2006 09 02  0145    53980    6300      0    1.61e+00    0    1.12e+00
2006 09 02  0150    53980    6600      0    1.60e+00    0    1.12e+00
2006 09 02  0155    53980    6900      0    1.65e+00    0    1.16e+00
2006 09 02  0200    53980    7200      0    1.61e+00    0    1.11e+00
2006 09 02  0205    53980    7500      0    1.61e+00    0    1.12e+00
2006 09 02  0210    53980    7800      0    1.60e+00    0    1.12e+00
2006 09 02  0215    53980    8100      0    1.60e+00    0    1.11e+00
2006 09 02  0220    53980    8400      0    1.57e+00    0    1.10e+00
2006 09 02  0225    53980    8700      0    1.60e+00    0    1.10e+00
2006 09 02  0230    53980    9000      0    1.59e+00    0    1.11e+00
2006 09 02  0235    53980    9300      0    1.62e+00    0    1.13e+00
2006 09 02  0240    53980    9600      0    1.62e+00    0    1.13e+00
2006 09 02  0245    53980    9900      0    1.60e+00    0    1.12e+00
2006 09 02  0250    53980   10200      0    1.60e+00    0    1.10e+00
2006 09 02  0255    53980   10500      0    1.59e+00    0    1.11e+00
2006 09 02  0300    53980   10800      0    1.59e+00    0    1.11e+00
2006 09 02  0305    53980   11100      0    1.59e+00    0    1.10e+00
2006 09 02  0310    53980   11400      0    1.60e+00    0    1.11e+00
2006 09 02  0315    53980   11700      0    1.61e+00    0    1.14e+00
2006 09 02  0320    53980   12000      0    1.65e+00    0    1.15e+00
2006 09 02  0325    53980   12300      0    1.58e+00    0    1.10e+00
2006 09 02  0330    53980   12600      0    1.63e+00    0    1.15e+00
2006 09 02  0335    53980   12900      0    1.64e+00    0    1.14e+00
2006 09 02  0340    53980   13200      0    1.57e+00    0    1.10e+00
2006 09 02  0345    53980   13500      0    1.64e+00    0    1.16e+00
2006 09 02  0350    53980   13800      0    1.62e+00    0    1.13e+00
2006 09 02  0355    53980   14100      0    1.58e+00    0    1.10e+00
2006 09 02  0400    53980   14400      0    1.61e+00    0    1.13e+00
2006 09 02  0405    53980   14700      0    1.60e+00    0    1.11e+00
2006 09 02  0410    53980   15000      0    1.60e+00    0    1.11e+00
2006 09 02  0415    53980   15300      0    1.62e+00    0    1.14e+00
2006 09 02  0420    53980   15600      0    1.58e+00    0    1.11e+00
2006 09 02  0425    53980   15900      0    1.61e+00    0    1.12e+00
2006 09 02  0430    53980   16200      0    1.60e+00    0    1.12e+00
2006 09 02  0435    53980   16500      0    1.61e+00    0    1.13e+00
2006 09 02  0440    53980   16800      0    1.63e+00    0    1.14e+00
2006 09 02  0445    53980   17100      0    1.62e+00    0    1.12e+00
2006 09 02  0450    53980   17400      0    1.54e+00    0    1.06e+00
2006 09 02  0455    53980   17700      0    1.64e+00    0    1.15e+00
2006 09 02  0500    53980   18000      0    1.60e+00    0    1.12e+00
2006 09 02  0505    53980   18300      0    1.58e+00    0    1.10e+00
2006 09 02  0510    53980   18600      0    1.62e+00    0    1.14e+00
2006 09 02  0515    53980   18900      0    1.57e+00    0    1.10e+00
2006 09 02  0520    53980   19200      0    1.59e+00    0    1.11e+00
2006 09 02  0525    53980   19500      0    1.60e+00    0    1.12e+00
2006 09 02  0530    53980   19800      0    1.60e+00    0    1.12e+00
2006 09 02  0535    53980   20100      0    1.62e+00    0    1.13e+00
2006 09 02  0540    53980   20400      0    1.59e+00    0    1.11e+00
2006 09 02  0545    53980   20700      0    1.58e+00    0    1.10e+00
2006 09 02  0550    53980   21000      0    1.57e+00    0    1.10e+00
2006 09 02  0555    53980   21300      0    1.62e+00    0    1.13e+00
2006 09 02  0600    53980   21600      0    1.59e+00    0    1.11e+00
2006 09 02  0605    53980   21900      0    1.58e+00    0    1.12e+00
2006 09 02  0610    53980   22200      0    1.59e+00    0    1.12e+00
2006 09 02  0615    53980   22500      0    1.59e+00    0    1.11e+00
2006 09 02  0620    53980   22800      0    1.55e+00    0    1.08e+00
2006 09 02  0625    53980   23100      0    1.61e+00    0    1.13e+00
2006 09 02  0630    53980   23400      0    1.56e+00    0    1.08e+00
2006 09 02  0635    53980   23700      0    1.58e+00    0    1.11e+00
2006 09 02  0640    53980   24000      0    1.61e+00    0    1.13e+00
2006 09 02  0645    53980   24300      0    1.62e+00    0    1.13e+00
2006 09 02  0650    53980   24600      0    1.57e+00    0    1.10e+00
2006 09 02  0655    53980   24900      0    1.59e+00    0    1.10e+00
2006 09 02  0700    53980   25200      0    1.60e+00    0    1.12e+00
2006 09 02  0705    53980   25500      0    1.56e+00    0    1.09e+00
2006 09 02  0710    53980   25800      0    1.56e+00    0    1.09e+00
2006 09 02  0715    53980   26100      0    1.60e+00    0    1.12e+00
2006 09 02  0720    53980   26400      0    1.61e+00    0    1.13e+00
2006 09 02  0725    53980   26700      0    1.58e+00    0    1.10e+00
2006 09 02  0730    53980   27000      0    1.60e+00    0    1.11e+00
2006 09 02  0735    53980   27300      0    1.63e+00    0    1.15e+00
2006 09 02  0740    53980   27600      0    1.62e+00    0    1.13e+00
2006 09 02  0745    53980   27900      0    1.56e+00    0    1.09e+00
2006 09 02  0750    53980   28200      0    1.59e+00    0    1.11e+00
2006 09 02  0755    53980   28500      0    1.62e+00    0    1.12e+00
2006 09 02  0800    53980   28800      0    1.57e+00    0    1.09e+00
2006 09 02  0805    53980   29100      0    1.58e+00    0    1.10e+00
2006 09 02  0810    53980   29400      0    1.60e+00    0    1.12e+00
2006 09 02  0815    53980   29700      0    1.54e+00    0    1.07e+00
2006 09 02  0820    53980   30000      0    1.61e+00    0    1.15e+00
2006 09 02  0825    53980   30300      0    1.61e+00    0    1.13e+00
2006 09 02  0830    53980   30600      0    1.60e+00    0    1.12e+00
2006 09 02  0835    53980   30900      0    1.58e+00    0    1.11e+00
2006 09 02  0840    53980   31200      0    1.63e+00    0    1.14e+00
2006 09 02  0845    53980   31500      0    1.61e+00    0    1.13e+00
2006 09 02  0850    53980   31800      0    1.59e+00    0    1.11e+00
2006 09 02  0855    53980   32100      0    1.59e+00    0    1.11e+00
2006 09 02  0900    53980   32400      0    1.62e+00    0    1.14e+00
2006 09 02  0905    53980   32700      0    1.59e+00    0    1.12e+00
2006 09 02  0910    53980   33000      0    1.60e+00    0    1.12e+00
2006 09 02  0915    53980   33300      0    1.62e+00    0    1.13e+00
2006 09 02  0920    53980   33600      0    1.61e+00    0    1.13e+00
2006 09 02  0925    53980   33900      0    1.60e+00    0    1.12e+00
2006 09 02  0930    53980   34200      0    1.61e+00    0    1.11e+00
2006 09 02  0935    53980   34500      0    1.61e+00    0    1.12e+00
2006 09 02  0940    53980   34800      0    1.62e+00    0    1.13e+00
2006 09 02  0945    53980   35100      0    1.60e+00    0    1.13e+00
2006 09 02  0950    53980   35400      0    1.59e+00    0    1.11e+00
2006 09 02  0955    53980   35700      0    1.57e+00    0    1.09e+00
2006 09 02  1000    53980   36000      0    1.60e+00    0    1.11e+00
2006 09 02  1005    53980   36300      0    1.58e+00    0    1.11e+00
2006 09 02  1010    53980   36600      0    1.57e+00    0    1.09e+00
2006 09 02  1015    53980   36900      0    1.59e+00    0    1.12e+00
2006 09 02  1020    53980   37200      0    1.64e+00    0    1.14e+00
2006 09 02  1025    53980   37500      0    1.57e+00    0    1.09e+00
2006 09 02  1030    53980   37800      0    1.55e+00    0    1.08e+00
2006 09 02  1035    53980   38100      0    1.60e+00    0    1.13e+00
2006 09 02  1040    53980   38400      0    1.60e+00    0    1.12e+00
2006 09 02  1045    53980   38700      0    1.63e+00    0    1.14e+00
2006 09 02  1050    53980   39000      0    1.60e+00    0    1.12e+00
2006 09 02  1055    53980   39300      0    1.60e+00    0    1.11e+00
2006 09 02  1100    53980   39600      0    1.60e+00    0    1.12e+00
2006 09 02  1105    53980   39900      0    1.57e+00    0    1.10e+00
2006 09 02  1110    53980   40200      0    1.59e+00    0    1.10e+00
2006 09 02  1115    53980   40500      0    1.62e+00    0    1.14e+00
2006 09 02  1120    53980   40800      0    1.59e+00    0    1.10e+00
2006 09 02  1125    53980   41100      0    1.60e+00    0    1.11e+00
2006 09 02  1130    53980   41400      0    1.61e+00    0    1.12e+00
2006 09 02  1135    53980   41700      0    1.60e+00    0    1.11e+00
2006 09 02  1140    53980   42000      0    1.61e+00    0    1.13e+00
2006 09 02  1145    53980   42300      0    1.64e+00    0    1.15e+00
2006 09 02  1150    53980   42600      0    1.62e+00    0    1.13e+00
2006 09 02  1155    53980   42900      0    1.61e+00    0    1.12e+00
2006 09 02  1200    53980   43200      0    1.61e+00    0    1.12e+00
2006 09 02  1205    53980   43500      0    1.60e+00    0    1.13e+00
2006 09 02  1210    53980   43800      0    1.59e+00    0    1.11e+00
2006 09 02  1215    53980   44100      0    1.62e+00    0    1.13e+00
2006 09 02  1220    53980   44400      0    1.62e+00    0    1.14e+00
2006 09 02  1225    53980   44700      0    1.63e+00    0    1.14e+00
2006 09 02  1230    53980   45000      0    1.60e+00    0    1.12e+00
2006 09 02  1235    53980   45300      0    1.61e+00    0    1.13e+00
2006 09 02  1240    53980   45600      0    1.60e+00    0    1.11e+00
2006 09 02  1245    53980   45900      0    1.63e+00    0    1.15e+00
2006 09 02  1250    53980   46200      0    1.60e+00    0    1.12e+00
2006 09 02  1255    53980   46500      0    1.59e+00    0    1.10e+00
2006 09 02  1300    53980   46800      0    1.60e+00    0    1.12e+00
2006 09 02  1305    53980   47100      0    1.61e+00    0    1.14e+00
2006 09 02  1310    53980   47400      0    1.62e+00    0    1.14e+00
2006 09 02  1315    53980   47700      0    1.60e+00    0    1.12e+00
2006 09 02  1320    53980   48000      0    1.61e+00    0    1.12e+00
2006 09 02  1325    53980   48300      0    1.61e+00    0    1.14e+00
2006 09 02  1330    53980   48600      0    1.63e+00    0    1.14e+00
2006 09 02  1335    53980   48900      0    1.59e+00    0    1.12e+00
2006 09 02  1340    53980   49200      0    1.58e+00    0    1.11e+00
2006 09 02  1345    53980   49500      0    1.63e+00    0    1.14e+00
2006 09 02  1350    53980   49800      0    1.58e+00    0    1.11e+00
2006 09 02  1355    53980   50100      0    1.59e+00    0    1.11e+00
2006 09 02  1400    53980   50400      0    1.62e+00    0    1.12e+00
2006 09 02  1405    53980   50700      0    1.61e+00    0    1.13e+00
2006 09 02  1410    53980   51000      0    1.59e+00    0    1.10e+00
2006 09 02  1415    53980   51300      0    1.51e+00    0    1.06e+00
2006 09 02  1420    53980   51600      0    1.62e+00    0    1.13e+00
2006 09 02  1425    53980   51900      0    1.60e+00    0    1.11e+00
2006 09 02  1430    53980   52200      0    1.59e+00    0    1.11e+00
2006 09 02  1435    53980   52500      0    1.60e+00    0    1.11e+00
2006 09 02  1440    53980   52800      0    1.60e+00    0    1.12e+00
2006 09 02  1445    53980   53100      0    1.62e+00    0    1.14e+00
2006 09 02  1450    53980   53400      0    1.60e+00    0    1.11e+00
2006 09 02  1455    53980   53700      0    1.59e+00    0    1.12e+00
2006 09 02  1500    53980   54000      0    1.59e+00    0    1.10e+00
2006 09 02  1505    53980   54300      0    1.64e+00    0    1.15e+00
2006 09 02  1510    53980   54600      0    1.61e+00    0    1.11e+00
2006 09 02  1515    53980   54900      0    1.62e+00    0    1.13e+00
2006 09 02  1520    53980   55200      0    1.63e+00    0    1.14e+00
2006 09 02  1525    53980   55500      0    1.61e+00    0    1.12e+00
2006 09 02  1530    53980   55800      0    1.60e+00    0    1.13e+00
2006 09 02  1535    53980   56100      0    1.59e+00    0    1.12e+00
2006 09 02  1540    53980   56400      0    1.45e+00    0    1.00e+00
2006 09 02  1545    53980   56700      0    1.62e+00    0    1.13e+00
2006 09 02  1550    53980   57000      0    1.56e+00    0    1.09e+00
2006 09 02  1555    53980   57300      0    1.57e+00    0    1.10e+00
2006 09 02  1600    53980   57600      0    1.60e+00    0    1.11e+00
2006 09 02  1605    53980   57900      0    1.61e+00    0    1.13e+00
2006 09 02  1610    53980   58200      0    1.60e+00    0    1.13e+00
2006 09 02  1615    53980   58500      0    1.60e+00    0    1.13e+00
2006 09 02  1620    53980   58800      0    1.60e+00    0    1.12e+00
2006 09 02  1625    53980   59100      0    1.60e+00    0    1.11e+00
2006 09 02  1630    53980   59400      0    1.59e+00    0    1.11e+00
2006 09 02  1635    53980   59700      0    1.60e+00    0    1.11e+00
2006 09 02  1640    53980   60000      0    1.53e+00    0    1.07e+00
2006 09 02  1645    53980   60300      0    1.62e+00    0    1.14e+00
2006 09 02  1650    53980   60600      0    1.63e+00    0    1.16e+00
2006 09 02  1655    53980   60900      0    1.59e+00    0    1.10e+00
2006 09 02  1700    53980   61200      0    1.59e+00    0    1.12e+00
2006 09 02  1705    53980   61500      0    1.58e+00    0    1.09e+00
2006 09 02  1710    53980   61800      0    1.56e+00    0    1.08e+00
2006 09 02  1715    53980   62100      0    1.59e+00    0    1.12e+00
2006 09 02  1720    53980   62400      0    1.63e+00    0    1.13e+00
2006 09 02  1725    53980   62700      0    1.60e+00    0    1.12e+00
2006 09 02  1730    53980   63000      0    1.60e+00    0    1.13e+00
2006 09 02  1735    53980   63300      0    1.58e+00    0    1.11e+00
2006 09 02  1740    53980   63600      0    1.62e+00    0    1.12e+00
2006 09 02  1745    53980   63900      0    1.59e+00    0    1.12e+00
2006 09 02  1750    53980   64200      0    1.58e+00    0    1.10e+00
2006 09 02  1755    53980   64500      0    1.56e+00    0    1.09e+00
2006 09 02  1800    53980   64800      0    1.58e+00    0    1.10e+00
2006 09 02  1805    53980   65100      0    1.60e+00    0    1.12e+00
2006 09 02  1810    53980   65400      0    1.53e+00    0    1.06e+00
2006 09 02  1815    53980   65700      0    1.56e+00    0    1.09e+00
2006 09 02  1820    53980   66000      0    1.57e+00    0    1.09e+00
2006 09 02  1825    53980   66300      0    1.55e+00    0    1.09e+00
2006 09 02  1830    53980   66600      0    1.56e+00    0    1.09e+00
2006 09 02  1835    53980   66900      0    1.58e+00    0    1.11e+00
2006 09 02  1840    53980   67200      0    1.60e+00    0    1.13e+00
2006 09 02  1845    53980   67500      0    1.58e+00    0    1.10e+00
2006 09 02  1850    53980   67800      0    1.58e+00    0    1.11e+00
2006 09 02  1855    53980   68100      0    1.62e+00    0    1.13e+00
2006 09 02  1900    53980   68400      0    1.57e+00    0    1.09e+00
2006 09 02  1905    53980   68700      0    1.58e+00    0    1.11e+00
2006 09 02  1910    53980   69000      0    1.58e+00    0    1.11e+00
2006 09 02  1915    53980   69300      0    1.57e+00    0    1.10e+00
2006 09 02  1920    53980   69600      0    1.60e+00    0    1.12e+00
2006 09 02  1925    53980   69900      0    1.57e+00    0    1.11e+00
2006 09 02  1930    53980   70200      0    1.58e+00    0    1.13e+00
2006 09 02  1935    53980   70500      0    1.57e+00    0    1.10e+00
2006 09 02  1940    53980   70800      0    1.60e+00    0    1.12e+00
2006 09 02  1945    53980   71100      0    1.61e+00    0    1.13e+00
2006 09 02  1950    53980   71400      0    1.58e+00    0    1.10e+00
2006 09 02  1955    53980   71700      0    1.57e+00    0    1.10e+00
2006 09 02  2000    53980   72000      0    1.60e+00    0    1.13e+00
2006 09 02  2005    53980   72300      0    1.57e+00    0    1.10e+00
2006 09 02  2010    53980   72600      0    1.58e+00    0    1.12e+00
2006 09 02  2015    53980   72900      0    1.56e+00    0    1.09e+00
2006 09 02  2020    53980   73200      0    1.57e+00    0    1.10e+00
2006 09 02  2025    53980   73500      0    1.61e+00    0    1.12e+00
2006 09 02  2030    53980   73800      0    1.56e+00    0    1.10e+00
2006 09 02  2035    53980   74100      0    1.57e+00    0    1.11e+00
2006 09 02  2040    53980   74400      0    1.56e+00    0    1.09e+00
2006 09 02  2045    53980   74700      0    1.58e+00    0    1.11e+00
2006 09 02  2050    53980   75000      0    1.58e+00    0    1.11e+00
2006 09 02  2055    53980   75300      0    1.59e+00    0    1.11e+00
2006 09 02  2100    53980   75600      0    1.58e+00    0    1.10e+00
2006 09 02  2105    53980   75900      0    1.57e+00    0    1.11e+00
2006 09 02  2110    53980   76200      0    1.57e+00    0    1.10e+00
2006 09 02  2115    53980   76500      0    1.57e+00    0    1.10e+00
2006 09 02  2120    53980   76800      0    1.57e+00    0    1.10e+00
2006 09 02  2125    53980   77100      0    1.58e+00    0    1.11e+00
2006 09 02  2130    53980   77400      0    1.55e+00    0    1.07e+00
2006 09 02  2135    53980   77700      0    1.58e+00    0    1.12e+00
2006 09 02  2140    53980   78000      0    1.57e+00    0    1.10e+00
2006 09 02  2145    53980   78300      0    1.54e+00    0    1.09e+00
2006 09 02  2150    53980   78600      0    1.58e+00    0    1.10e+00
2006 09 02  2155    53980   78900      0    1.57e+00    0    1.09e+00
2006 09 02  2200    53980   79200      0    1.57e+00    0    1.10e+00
2006 09 02  2205    53980   79500      0    1.57e+00    0    1.09e+00
2006 09 02  2210    53980   79800      0    1.56e+00    0    1.09e+00
2006 09 02  2215    53980   80100      0    1.57e+00    0    1.11e+00
2006 09 02  2220    53980   80400      0    1.58e+00    0    1.10e+00
2006 09 02  2225    53980   80700      0    1.62e+00    0    1.13e+00
2006 09 02  2230    53980   81000      0    1.59e+00    0    1.11e+00
2006 09 02  2235    53980   81300      0    1.57e+00    0    1.09e+00
2006 09 02  2240    53980   81600      0    1.56e+00    0    1.10e+00
2006 09 02  2245    53980   81900      0    1.58e+00    0    1.11e+00
2006 09 02  2250    53980   82200      0    1.60e+00    0    1.12e+00
2006 09 02  2255    53980   82500      0    1.59e+00    0    1.12e+00
2006 09 02  2300    53980   82800      0    1.56e+00    0    1.10e+00
2006 09 02  2305    53980   83100      0    1.58e+00    0    1.11e+00
2006 09 02  2310    53980   83400      0    1.61e+00    0    1.12e+00
2006 09 02  2315    53980   83700      0    1.57e+00    0    1.09e+00
2006 09 02  2320    53980   84000      0    1.62e+00    0    1.13e+00
2006 09 02  2325    53980   84300      0    1.53e+00    0    1.06e+00
2006 09 02  2330    53980   84600      0    1.59e+00    0    1.11e+00
2006 09 02  2335    53980   84900      0    1.56e+00    0    1.09e+00
2006 09 02  2340    53980   85200      0    1.57e+00    0    1.11e+00
2006 09 02  2345    53980   85500      0    1.55e+00    0    1.09e+00
2006 09 02  2350    53980   85800      0    1.57e+00    0    1.10e+00
2006 09 02  2355    53980   86100      0    1.56e+00    0    1.10e+00
