:Data_list: 20060211_ace_sis_5m.txt
:Created: 2006 Feb 12 0011 UT
# Prepared by the U.S. Dept. of Commerce, NOAA, Space Environment Center.
# Please send comments and suggestions to SEC.Webmaster@noaa.gov 
# 
# Units: proton flux p/cs2-sec-ster
# Status(S): 0 = nominal data, 1 to 8 = bad data record, 9 = no data
# Missing data values: -1.00e+05
# Source: ACE Satellite - Solar Isotope Spectrometer
#
# 5-minute averaged Real-time Integral Flux of High-energy Solar Protons
# 
#                 Modified Seconds
# UT Date   Time   Julian  of the      ---- Integral Proton Flux ----
# YR MO DA  HHMM     Day     Day       S    > 10 MeV    S    > 30 MeV
#--------------------------------------------------------------------
2006 02 11  0000    53777       0      0    1.45e+00    0    1.01e+00
2006 02 11  0005    53777     300      0    1.48e+00    0    1.02e+00
2006 02 11  0010    53777     600      0    1.46e+00    0    1.01e+00
2006 02 11  0015    53777     900      0    1.46e+00    0    1.03e+00
2006 02 11  0020    53777    1200      0    1.45e+00    0    1.02e+00
2006 02 11  0025    53777    1500      0    1.48e+00    0    1.05e+00
2006 02 11  0030    53777    1800      0    1.47e+00    0    1.03e+00
2006 02 11  0035    53777    2100      0    1.47e+00    0    1.03e+00
2006 02 11  0040    53777    2400      0    1.47e+00    0    1.04e+00
2006 02 11  0045    53777    2700      0    1.43e+00    0    1.00e+00
2006 02 11  0050    53777    3000      0    1.47e+00    0    1.04e+00
2006 02 11  0055    53777    3300      0    1.44e+00    0    1.00e+00
2006 02 11  0100    53777    3600      0    1.48e+00    0    1.05e+00
2006 02 11  0105    53777    3900      9   -1.00e+05    9   -1.00e+05
2006 02 11  0110    53777    4200      0    1.47e+00    0    1.03e+00
2006 02 11  0115    53777    4500      0    1.45e+00    0    1.02e+00
2006 02 11  0120    53777    4800      0    1.45e+00    0    1.01e+00
2006 02 11  0125    53777    5100      0    1.43e+00    0    9.98e-01
2006 02 11  0130    53777    5400      0    1.46e+00    0    1.03e+00
2006 02 11  0135    53777    5700      0    1.48e+00    0    1.03e+00
2006 02 11  0140    53777    6000      0    1.49e+00    0    1.05e+00
2006 02 11  0145    53777    6300      0    1.47e+00    0    1.04e+00
2006 02 11  0150    53777    6600      0    1.45e+00    0    1.01e+00
2006 02 11  0155    53777    6900      0    1.45e+00    0    1.02e+00
2006 02 11  0200    53777    7200      0    1.47e+00    0    1.04e+00
2006 02 11  0205    53777    7500      0    1.46e+00    0    1.01e+00
2006 02 11  0210    53777    7800      0    1.46e+00    0    1.01e+00
2006 02 11  0215    53777    8100      0    1.47e+00    0    1.03e+00
2006 02 11  0220    53777    8400      0    1.46e+00    0    1.02e+00
2006 02 11  0225    53777    8700      0    1.45e+00    0    1.03e+00
2006 02 11  0230    53777    9000      0    1.46e+00    0    1.04e+00
2006 02 11  0235    53777    9300      0    1.45e+00    0    1.01e+00
2006 02 11  0240    53777    9600      0    1.43e+00    0    1.01e+00
2006 02 11  0245    53777    9900      0    1.46e+00    0    1.03e+00
2006 02 11  0250    53777   10200      0    1.48e+00    0    1.04e+00
2006 02 11  0255    53777   10500      0    1.47e+00    0    1.02e+00
2006 02 11  0300    53777   10800      0    1.47e+00    0    1.04e+00
2006 02 11  0305    53777   11100      0    1.48e+00    0    1.05e+00
2006 02 11  0310    53777   11400      0    1.45e+00    0    1.00e+00
2006 02 11  0315    53777   11700      0    1.47e+00    0    1.03e+00
2006 02 11  0320    53777   12000      0    1.45e+00    0    1.01e+00
2006 02 11  0325    53777   12300      0    1.45e+00    0    1.01e+00
2006 02 11  0330    53777   12600      0    1.45e+00    0    1.02e+00
2006 02 11  0335    53777   12900      0    1.48e+00    0    1.04e+00
2006 02 11  0340    53777   13200      0    1.50e+00    0    1.05e+00
2006 02 11  0345    53777   13500      0    1.47e+00    0    1.04e+00
2006 02 11  0350    53777   13800      0    1.46e+00    0    1.03e+00
2006 02 11  0355    53777   14100      0    1.47e+00    0    1.03e+00
2006 02 11  0400    53777   14400      0    1.45e+00    0    1.02e+00
2006 02 11  0405    53777   14700      0    1.48e+00    0    1.05e+00
2006 02 11  0410    53777   15000      0    1.44e+00    0    1.01e+00
2006 02 11  0415    53777   15300      0    1.45e+00    0    1.02e+00
2006 02 11  0420    53777   15600      0    1.45e+00    0    1.02e+00
2006 02 11  0425    53777   15900      0    1.47e+00    0    1.04e+00
2006 02 11  0430    53777   16200      0    1.47e+00    0    1.02e+00
2006 02 11  0435    53777   16500      0    1.46e+00    0    1.01e+00
2006 02 11  0440    53777   16800      0    1.46e+00    0    1.02e+00
2006 02 11  0445    53777   17100      0    1.49e+00    0    1.03e+00
2006 02 11  0450    53777   17400      0    1.49e+00    0    1.05e+00
2006 02 11  0455    53777   17700      0    1.44e+00    0    1.00e+00
2006 02 11  0500    53777   18000      0    1.47e+00    0    1.03e+00
2006 02 11  0505    53777   18300      0    1.45e+00    0    1.01e+00
2006 02 11  0510    53777   18600      0    1.47e+00    0    1.04e+00
2006 02 11  0515    53777   18900      0    1.46e+00    0    1.03e+00
2006 02 11  0520    53777   19200      0    1.49e+00    0    1.04e+00
2006 02 11  0525    53777   19500      0    1.47e+00    0    1.04e+00
2006 02 11  0530    53777   19800      0    1.47e+00    0    1.03e+00
2006 02 11  0535    53777   20100      0    1.48e+00    0    1.05e+00
2006 02 11  0540    53777   20400      0    1.47e+00    0    1.03e+00
2006 02 11  0545    53777   20700      0    1.47e+00    0    1.03e+00
2006 02 11  0550    53777   21000      0    1.43e+00    0    1.00e+00
2006 02 11  0555    53777   21300      0    1.49e+00    0    1.05e+00
2006 02 11  0600    53777   21600      0    1.50e+00    0    1.05e+00
2006 02 11  0605    53777   21900      0    1.50e+00    0    1.06e+00
2006 02 11  0610    53777   22200      0    1.48e+00    0    1.04e+00
2006 02 11  0615    53777   22500      0    1.53e+00    0    1.08e+00
2006 02 11  0620    53777   22800      0    1.50e+00    0    1.06e+00
2006 02 11  0625    53777   23100      0    1.49e+00    0    1.05e+00
2006 02 11  0630    53777   23400      0    1.45e+00    0    1.02e+00
2006 02 11  0635    53777   23700      0    1.47e+00    0    1.03e+00
2006 02 11  0640    53777   24000      0    1.48e+00    0    1.04e+00
2006 02 11  0645    53777   24300      0    1.47e+00    0    1.04e+00
2006 02 11  0650    53777   24600      0    1.46e+00    0    1.03e+00
2006 02 11  0655    53777   24900      0    1.46e+00    0    1.03e+00
2006 02 11  0700    53777   25200      0    1.51e+00    0    1.07e+00
2006 02 11  0705    53777   25500      0    1.48e+00    0    1.04e+00
2006 02 11  0710    53777   25800      0    1.45e+00    0    1.01e+00
2006 02 11  0715    53777   26100      0    1.45e+00    0    1.01e+00
2006 02 11  0720    53777   26400      0    1.42e+00    0    9.90e-01
2006 02 11  0725    53777   26700      0    1.48e+00    0    1.04e+00
2006 02 11  0730    53777   27000      0    1.45e+00    0    1.02e+00
2006 02 11  0735    53777   27300      0    1.47e+00    0    1.02e+00
2006 02 11  0740    53777   27600      0    1.46e+00    0    1.03e+00
2006 02 11  0745    53777   27900      0    1.50e+00    0    1.04e+00
2006 02 11  0750    53777   28200      0    1.49e+00    0    1.05e+00
2006 02 11  0755    53777   28500      0    1.49e+00    0    1.05e+00
2006 02 11  0800    53777   28800      0    1.51e+00    0    1.06e+00
2006 02 11  0805    53777   29100      0    1.54e+00    0    1.09e+00
2006 02 11  0810    53777   29400      0    1.50e+00    0    1.06e+00
2006 02 11  0815    53777   29700      0    1.49e+00    0    1.05e+00
2006 02 11  0820    53777   30000      0    1.48e+00    0    1.02e+00
2006 02 11  0825    53777   30300      0    1.53e+00    0    1.08e+00
2006 02 11  0830    53777   30600      0    1.51e+00    0    1.06e+00
2006 02 11  0835    53777   30900      0    1.49e+00    0    1.05e+00
2006 02 11  0840    53777   31200      0    1.49e+00    0    1.04e+00
2006 02 11  0845    53777   31500      0    1.48e+00    0    1.04e+00
2006 02 11  0850    53777   31800      0    1.50e+00    0    1.05e+00
2006 02 11  0855    53777   32100      0    1.47e+00    0    1.02e+00
2006 02 11  0900    53777   32400      0    1.47e+00    0    1.03e+00
2006 02 11  0905    53777   32700      0    1.50e+00    0    1.06e+00
2006 02 11  0910    53777   33000      0    1.49e+00    0    1.05e+00
2006 02 11  0915    53777   33300      0    1.48e+00    0    1.05e+00
2006 02 11  0920    53777   33600      0    1.47e+00    0    1.04e+00
2006 02 11  0925    53777   33900      0    1.48e+00    0    1.05e+00
2006 02 11  0930    53777   34200      0    1.50e+00    0    1.06e+00
2006 02 11  0935    53777   34500      0    1.48e+00    0    1.04e+00
2006 02 11  0940    53777   34800      0    1.48e+00    0    1.03e+00
2006 02 11  0945    53777   35100      0    1.49e+00    0    1.04e+00
2006 02 11  0950    53777   35400      0    1.48e+00    0    1.04e+00
2006 02 11  0955    53777   35700      0    1.49e+00    0    1.04e+00
2006 02 11  1000    53777   36000      0    1.47e+00    0    1.04e+00
2006 02 11  1005    53777   36300      0    1.45e+00    0    1.01e+00
2006 02 11  1010    53777   36600      0    1.48e+00    0    1.04e+00
2006 02 11  1015    53777   36900      0    1.49e+00    0    1.04e+00
2006 02 11  1020    53777   37200      0    1.52e+00    0    1.07e+00
2006 02 11  1025    53777   37500      0    1.49e+00    0    1.05e+00
2006 02 11  1030    53777   37800      0    1.46e+00    0    1.03e+00
2006 02 11  1035    53777   38100      0    1.50e+00    0    1.06e+00
2006 02 11  1040    53777   38400      0    1.48e+00    0    1.04e+00
2006 02 11  1045    53777   38700      0    1.46e+00    0    1.02e+00
2006 02 11  1050    53777   39000      0    1.48e+00    0    1.04e+00
2006 02 11  1055    53777   39300      0    1.47e+00    0    1.04e+00
2006 02 11  1100    53777   39600      0    1.49e+00    0    1.05e+00
2006 02 11  1105    53777   39900      0    1.50e+00    0    1.05e+00
2006 02 11  1110    53777   40200      0    1.47e+00    0    1.03e+00
2006 02 11  1115    53777   40500      0    1.47e+00    0    1.03e+00
2006 02 11  1120    53777   40800      0    1.48e+00    0    1.04e+00
2006 02 11  1125    53777   41100      0    1.51e+00    0    1.06e+00
2006 02 11  1130    53777   41400      0    1.48e+00    0    1.05e+00
2006 02 11  1135    53777   41700      0    1.49e+00    0    1.04e+00
2006 02 11  1140    53777   42000      0    1.51e+00    0    1.06e+00
2006 02 11  1145    53777   42300      0    1.50e+00    0    1.05e+00
2006 02 11  1150    53777   42600      0    1.48e+00    0    1.04e+00
2006 02 11  1155    53777   42900      0    1.48e+00    0    1.03e+00
2006 02 11  1200    53777   43200      0    1.52e+00    0    1.08e+00
2006 02 11  1205    53777   43500      0    1.49e+00    0    1.05e+00
2006 02 11  1210    53777   43800      0    1.50e+00    0    1.05e+00
2006 02 11  1215    53777   44100      0    1.50e+00    0    1.05e+00
2006 02 11  1220    53777   44400      0    1.48e+00    0    1.04e+00
2006 02 11  1225    53777   44700      0    1.49e+00    0    1.03e+00
2006 02 11  1230    53777   45000      0    1.48e+00    0    1.04e+00
2006 02 11  1235    53777   45300      0    1.49e+00    0    1.05e+00
2006 02 11  1240    53777   45600      0    1.48e+00    0    1.04e+00
2006 02 11  1245    53777   45900      0    1.48e+00    0    1.05e+00
2006 02 11  1250    53777   46200      0    1.51e+00    0    1.06e+00
2006 02 11  1255    53777   46500      0    1.51e+00    0    1.05e+00
2006 02 11  1300    53777   46800      0    1.49e+00    0    1.04e+00
2006 02 11  1305    53777   47100      0    1.50e+00    0    1.06e+00
2006 02 11  1310    53777   47400      0    1.49e+00    0    1.05e+00
2006 02 11  1315    53777   47700      0    1.48e+00    0    1.04e+00
2006 02 11  1320    53777   48000      0    1.49e+00    0    1.05e+00
2006 02 11  1325    53777   48300      0    1.48e+00    0    1.03e+00
2006 02 11  1330    53777   48600      0    1.46e+00    0    1.03e+00
2006 02 11  1335    53777   48900      0    1.48e+00    0    1.04e+00
2006 02 11  1340    53777   49200      0    1.52e+00    0    1.08e+00
2006 02 11  1345    53777   49500      0    1.47e+00    0    1.04e+00
2006 02 11  1350    53777   49800      0    1.50e+00    0    1.05e+00
2006 02 11  1355    53777   50100      0    1.54e+00    0    1.08e+00
2006 02 11  1400    53777   50400      0    1.47e+00    0    1.03e+00
2006 02 11  1405    53777   50700      0    1.51e+00    0    1.06e+00
2006 02 11  1410    53777   51000      0    1.45e+00    0    1.03e+00
2006 02 11  1415    53777   51300      0    1.47e+00    0    1.04e+00
2006 02 11  1420    53777   51600      0    1.48e+00    0    1.05e+00
2006 02 11  1425    53777   51900      0    1.47e+00    0    1.02e+00
2006 02 11  1430    53777   52200      0    1.47e+00    0    1.03e+00
2006 02 11  1435    53777   52500      0    1.46e+00    0    1.03e+00
2006 02 11  1440    53777   52800      0    1.45e+00    0    1.03e+00
2006 02 11  1445    53777   53100      0    1.48e+00    0    1.04e+00
2006 02 11  1450    53777   53400      0    1.42e+00    0    9.92e-01
2006 02 11  1455    53777   53700      0    1.47e+00    0    1.03e+00
2006 02 11  1500    53777   54000      0    1.51e+00    0    1.05e+00
2006 02 11  1505    53777   54300      0    1.48e+00    0    1.05e+00
2006 02 11  1510    53777   54600      0    1.50e+00    0    1.05e+00
2006 02 11  1515    53777   54900      0    1.48e+00    0    1.04e+00
2006 02 11  1520    53777   55200      0    1.52e+00    0    1.07e+00
2006 02 11  1525    53777   55500      0    1.49e+00    0    1.05e+00
2006 02 11  1530    53777   55800      0    1.49e+00    0    1.05e+00
2006 02 11  1535    53777   56100      0    1.48e+00    0    1.04e+00
2006 02 11  1540    53777   56400      0    1.50e+00    0    1.05e+00
2006 02 11  1545    53777   56700      0    1.48e+00    0    1.04e+00
2006 02 11  1550    53777   57000      0    1.48e+00    0    1.04e+00
2006 02 11  1555    53777   57300      0    1.49e+00    0    1.04e+00
2006 02 11  1600    53777   57600      0    1.43e+00    0    9.89e-01
2006 02 11  1605    53777   57900      0    1.47e+00    0    1.03e+00
2006 02 11  1610    53777   58200      0    1.48e+00    0    1.04e+00
2006 02 11  1615    53777   58500      0    1.46e+00    0    1.03e+00
2006 02 11  1620    53777   58800      0    1.48e+00    0    1.05e+00
2006 02 11  1625    53777   59100      0    1.48e+00    0    1.06e+00
2006 02 11  1630    53777   59400      0    1.50e+00    0    1.05e+00
2006 02 11  1635    53777   59700      0    1.48e+00    0    1.05e+00
2006 02 11  1640    53777   60000      0    1.39e+00    0    9.74e-01
2006 02 11  1645    53777   60300      0    1.47e+00    0    1.02e+00
2006 02 11  1650    53777   60600      0    1.45e+00    0    1.02e+00
2006 02 11  1655    53777   60900      0    1.48e+00    0    1.05e+00
2006 02 11  1700    53777   61200      0    1.49e+00    0    1.04e+00
2006 02 11  1705    53777   61500      0    1.46e+00    0    1.04e+00
2006 02 11  1710    53777   61800      0    1.47e+00    0    1.03e+00
2006 02 11  1715    53777   62100      0    1.48e+00    0    1.04e+00
2006 02 11  1720    53777   62400      0    1.53e+00    0    1.09e+00
2006 02 11  1725    53777   62700      0    1.47e+00    0    1.03e+00
2006 02 11  1730    53777   63000      0    1.46e+00    0    1.01e+00
2006 02 11  1735    53777   63300      0    1.46e+00    0    1.02e+00
2006 02 11  1740    53777   63600      0    1.50e+00    0    1.05e+00
2006 02 11  1745    53777   63900      0    1.46e+00    0    1.03e+00
2006 02 11  1750    53777   64200      0    1.48e+00    0    1.04e+00
2006 02 11  1755    53777   64500      0    1.46e+00    0    1.01e+00
2006 02 11  1800    53777   64800      0    1.48e+00    0    1.03e+00
2006 02 11  1805    53777   65100      0    1.46e+00    0    1.02e+00
2006 02 11  1810    53777   65400      0    1.48e+00    0    1.04e+00
2006 02 11  1815    53777   65700      0    1.48e+00    0    1.04e+00
2006 02 11  1820    53777   66000      0    1.52e+00    0    1.07e+00
2006 02 11  1825    53777   66300      0    1.48e+00    0    1.04e+00
2006 02 11  1830    53777   66600      0    1.48e+00    0    1.04e+00
2006 02 11  1835    53777   66900      0    1.48e+00    0    1.04e+00
2006 02 11  1840    53777   67200      0    1.44e+00    0    1.00e+00
2006 02 11  1845    53777   67500      0    1.44e+00    0    1.01e+00
2006 02 11  1850    53777   67800      0    1.47e+00    0    1.03e+00
2006 02 11  1855    53777   68100      0    1.44e+00    0    1.03e+00
2006 02 11  1900    53777   68400      0    1.43e+00    0    9.96e-01
2006 02 11  1905    53777   68700      0    1.45e+00    0    1.01e+00
2006 02 11  1910    53777   69000      0    1.47e+00    0    1.04e+00
2006 02 11  1915    53777   69300      0    1.49e+00    0    1.05e+00
2006 02 11  1920    53777   69600      0    1.48e+00    0    1.04e+00
2006 02 11  1925    53777   69900      0    1.47e+00    0    1.04e+00
2006 02 11  1930    53777   70200      0    1.48e+00    0    1.05e+00
2006 02 11  1935    53777   70500      0    1.46e+00    0    1.03e+00
2006 02 11  1940    53777   70800      0    1.46e+00    0    1.02e+00
2006 02 11  1945    53777   71100      0    1.45e+00    0    1.01e+00
2006 02 11  1950    53777   71400      0    1.46e+00    0    1.03e+00
2006 02 11  1955    53777   71700      0    1.46e+00    0    1.03e+00
2006 02 11  2000    53777   72000      0    1.48e+00    0    1.04e+00
2006 02 11  2005    53777   72300      0    1.45e+00    0    1.02e+00
2006 02 11  2010    53777   72600      0    1.44e+00    0    1.01e+00
2006 02 11  2015    53777   72900      0    1.47e+00    0    1.02e+00
2006 02 11  2020    53777   73200      0    1.47e+00    0    1.03e+00
2006 02 11  2025    53777   73500      0    1.46e+00    0    1.03e+00
2006 02 11  2030    53777   73800      0    1.44e+00    0    1.01e+00
2006 02 11  2035    53777   74100      0    1.47e+00    0    1.03e+00
2006 02 11  2040    53777   74400      0    1.47e+00    0    1.03e+00
2006 02 11  2045    53777   74700      0    1.47e+00    0    1.03e+00
2006 02 11  2050    53777   75000      0    1.48e+00    0    1.04e+00
2006 02 11  2055    53777   75300      0    1.44e+00    0    1.01e+00
2006 02 11  2100    53777   75600      0    1.45e+00    0    1.02e+00
2006 02 11  2105    53777   75900      0    1.45e+00    0    1.02e+00
2006 02 11  2110    53777   76200      0    1.46e+00    0    1.03e+00
2006 02 11  2115    53777   76500      0    1.47e+00    0    1.04e+00
2006 02 11  2120    53777   76800      0    1.47e+00    0    1.04e+00
2006 02 11  2125    53777   77100      0    1.46e+00    0    1.03e+00
2006 02 11  2130    53777   77400      0    1.46e+00    0    1.03e+00
2006 02 11  2135    53777   77700      0    1.47e+00    0    1.04e+00
2006 02 11  2140    53777   78000      0    1.47e+00    0    1.04e+00
2006 02 11  2145    53777   78300      0    1.44e+00    0    1.01e+00
2006 02 11  2150    53777   78600      0    1.44e+00    0    1.01e+00
2006 02 11  2155    53777   78900      0    1.47e+00    0    1.04e+00
2006 02 11  2200    53777   79200      0    1.41e+00    0    9.75e-01
2006 02 11  2205    53777   79500      0    1.44e+00    0    1.02e+00
2006 02 11  2210    53777   79800      0    1.45e+00    0    1.02e+00
2006 02 11  2215    53777   80100      0    1.44e+00    0    1.00e+00
2006 02 11  2220    53777   80400      0    1.47e+00    0    1.02e+00
2006 02 11  2225    53777   80700      0    1.43e+00    0    1.00e+00
2006 02 11  2230    53777   81000      0    1.47e+00    0    1.04e+00
2006 02 11  2235    53777   81300      0    1.42e+00    0    9.92e-01
2006 02 11  2240    53777   81600      0    1.43e+00    0    1.01e+00
2006 02 11  2245    53777   81900      0    1.43e+00    0    1.02e+00
2006 02 11  2250    53777   82200      0    1.45e+00    0    1.02e+00
2006 02 11  2255    53777   82500      0    1.43e+00    0    1.00e+00
2006 02 11  2300    53777   82800      0    1.43e+00    0    1.01e+00
2006 02 11  2305    53777   83100      0    1.43e+00    0    1.00e+00
2006 02 11  2310    53777   83400      0    1.46e+00    0    1.02e+00
2006 02 11  2315    53777   83700      0    1.47e+00    0    1.03e+00
2006 02 11  2320    53777   84000      0    1.50e+00    0    1.04e+00
2006 02 11  2325    53777   84300      0    1.42e+00    0    1.00e+00
2006 02 11  2330    53777   84600      0    1.41e+00    0    9.81e-01
2006 02 11  2335    53777   84900      0    1.43e+00    0    9.94e-01
2006 02 11  2340    53777   85200      0    1.46e+00    0    1.02e+00
2006 02 11  2345    53777   85500      0    1.48e+00    0    1.05e+00
2006 02 11  2350    53777   85800      0    1.43e+00    0    9.91e-01
2006 02 11  2355    53777   86100      0    1.43e+00    0    1.00e+00
