:Data_list: 20060226_ace_sis_5m.txt
:Created: 2006 Feb 27 0011 UT
# Prepared by the U.S. Dept. of Commerce, NOAA, Space Environment Center.
# Please send comments and suggestions to SEC.Webmaster@noaa.gov 
# 
# Units: proton flux p/cs2-sec-ster
# Status(S): 0 = nominal data, 1 to 8 = bad data record, 9 = no data
# Missing data values: -1.00e+05
# Source: ACE Satellite - Solar Isotope Spectrometer
#
# 5-minute averaged Real-time Integral Flux of High-energy Solar Protons
# 
#                 Modified Seconds
# UT Date   Time   Julian  of the      ---- Integral Proton Flux ----
# YR MO DA  HHMM     Day     Day       S    > 10 MeV    S    > 30 MeV
#--------------------------------------------------------------------
2006 02 26  0000    53792       0      0    1.48e+00    0    1.03e+00
2006 02 26  0005    53792     300      0    1.48e+00    0    1.05e+00
2006 02 26  0010    53792     600      0    1.51e+00    0    1.06e+00
2006 02 26  0015    53792     900      0    1.46e+00    0    1.02e+00
2006 02 26  0020    53792    1200      0    1.47e+00    0    1.03e+00
2006 02 26  0025    53792    1500      0    1.50e+00    0    1.06e+00
2006 02 26  0030    53792    1800      0    1.46e+00    0    1.03e+00
2006 02 26  0035    53792    2100      0    1.47e+00    0    1.02e+00
2006 02 26  0040    53792    2400      0    1.44e+00    0    1.02e+00
2006 02 26  0045    53792    2700      0    1.49e+00    0    1.05e+00
2006 02 26  0050    53792    3000      0    1.46e+00    0    1.04e+00
2006 02 26  0055    53792    3300      0    1.46e+00    0    1.03e+00
2006 02 26  0100    53792    3600      0    1.46e+00    0    1.02e+00
2006 02 26  0105    53792    3900      0    1.48e+00    0    1.04e+00
2006 02 26  0110    53792    4200      0    1.53e+00    0    1.07e+00
2006 02 26  0115    53792    4500      0    1.51e+00    0    1.06e+00
2006 02 26  0120    53792    4800      0    1.51e+00    0    1.06e+00
2006 02 26  0125    53792    5100      0    1.48e+00    0    1.02e+00
2006 02 26  0130    53792    5400      0    1.47e+00    0    1.03e+00
2006 02 26  0135    53792    5700      0    1.46e+00    0    1.03e+00
2006 02 26  0140    53792    6000      0    1.46e+00    0    1.03e+00
2006 02 26  0145    53792    6300      0    1.48e+00    0    1.04e+00
2006 02 26  0150    53792    6600      0    1.47e+00    0    1.03e+00
2006 02 26  0155    53792    6900      0    1.48e+00    0    1.04e+00
2006 02 26  0200    53792    7200      0    1.45e+00    0    1.01e+00
2006 02 26  0205    53792    7500      0    1.49e+00    0    1.04e+00
2006 02 26  0210    53792    7800      0    1.47e+00    0    1.03e+00
2006 02 26  0215    53792    8100      0    1.49e+00    0    1.05e+00
2006 02 26  0220    53792    8400      0    1.46e+00    0    1.03e+00
2006 02 26  0225    53792    8700      0    1.49e+00    0    1.05e+00
2006 02 26  0230    53792    9000      0    1.49e+00    0    1.05e+00
2006 02 26  0235    53792    9300      0    1.52e+00    0    1.06e+00
2006 02 26  0240    53792    9600      0    1.50e+00    0    1.05e+00
2006 02 26  0245    53792    9900      0    1.52e+00    0    1.06e+00
2006 02 26  0250    53792   10200      0    1.48e+00    0    1.04e+00
2006 02 26  0255    53792   10500      0    1.53e+00    0    1.07e+00
2006 02 26  0300    53792   10800      0    1.54e+00    0    1.08e+00
2006 02 26  0305    53792   11100      0    1.52e+00    0    1.07e+00
2006 02 26  0310    53792   11400      0    1.48e+00    0    1.03e+00
2006 02 26  0315    53792   11700      0    1.50e+00    0    1.04e+00
2006 02 26  0320    53792   12000      0    1.49e+00    0    1.04e+00
2006 02 26  0325    53792   12300      0    1.51e+00    0    1.06e+00
2006 02 26  0330    53792   12600      0    1.51e+00    0    1.06e+00
2006 02 26  0335    53792   12900      0    1.53e+00    0    1.08e+00
2006 02 26  0340    53792   13200      0    1.45e+00    0    1.01e+00
2006 02 26  0345    53792   13500      0    1.52e+00    0    1.07e+00
2006 02 26  0350    53792   13800      0    1.50e+00    0    1.05e+00
2006 02 26  0355    53792   14100      0    1.53e+00    0    1.08e+00
2006 02 26  0400    53792   14400      0    1.52e+00    0    1.07e+00
2006 02 26  0405    53792   14700      0    1.52e+00    0    1.06e+00
2006 02 26  0410    53792   15000      0    1.50e+00    0    1.05e+00
2006 02 26  0415    53792   15300      0    1.49e+00    0    1.05e+00
2006 02 26  0420    53792   15600      0    1.47e+00    0    1.02e+00
2006 02 26  0425    53792   15900      0    1.49e+00    0    1.05e+00
2006 02 26  0430    53792   16200      0    1.52e+00    0    1.07e+00
2006 02 26  0435    53792   16500      0    1.50e+00    0    1.05e+00
2006 02 26  0440    53792   16800      0    1.49e+00    0    1.06e+00
2006 02 26  0445    53792   17100      0    1.48e+00    0    1.04e+00
2006 02 26  0450    53792   17400      0    1.48e+00    0    1.04e+00
2006 02 26  0455    53792   17700      0    1.50e+00    0    1.05e+00
2006 02 26  0500    53792   18000      0    1.51e+00    0    1.05e+00
2006 02 26  0505    53792   18300      0    1.51e+00    0    1.06e+00
2006 02 26  0510    53792   18600      0    1.51e+00    0    1.06e+00
2006 02 26  0515    53792   18900      0    1.49e+00    0    1.04e+00
2006 02 26  0520    53792   19200      0    1.49e+00    0    1.04e+00
2006 02 26  0525    53792   19500      0    1.50e+00    0    1.05e+00
2006 02 26  0530    53792   19800      0    1.52e+00    0    1.07e+00
2006 02 26  0535    53792   20100      0    1.50e+00    0    1.06e+00
2006 02 26  0540    53792   20400      0    1.48e+00    0    1.04e+00
2006 02 26  0545    53792   20700      0    1.51e+00    0    1.07e+00
2006 02 26  0550    53792   21000      0    1.49e+00    0    1.04e+00
2006 02 26  0555    53792   21300      0    1.46e+00    0    1.03e+00
2006 02 26  0600    53792   21600      0    1.55e+00    0    1.09e+00
2006 02 26  0605    53792   21900      0    1.52e+00    0    1.06e+00
2006 02 26  0610    53792   22200      0    1.52e+00    0    1.08e+00
2006 02 26  0615    53792   22500      0    1.49e+00    0    1.04e+00
2006 02 26  0620    53792   22800      0    1.48e+00    0    1.03e+00
2006 02 26  0625    53792   23100      0    1.52e+00    0    1.07e+00
2006 02 26  0630    53792   23400      0    1.48e+00    0    1.04e+00
2006 02 26  0635    53792   23700      0    1.52e+00    0    1.08e+00
2006 02 26  0640    53792   24000      0    1.52e+00    0    1.08e+00
2006 02 26  0645    53792   24300      0    1.47e+00    0    1.03e+00
2006 02 26  0650    53792   24600      0    1.53e+00    0    1.08e+00
2006 02 26  0655    53792   24900      0    1.52e+00    0    1.07e+00
2006 02 26  0700    53792   25200      0    1.51e+00    0    1.06e+00
2006 02 26  0705    53792   25500      0    1.45e+00    0    1.02e+00
2006 02 26  0710    53792   25800      0    1.50e+00    0    1.05e+00
2006 02 26  0715    53792   26100      0    1.55e+00    0    1.09e+00
2006 02 26  0720    53792   26400      0    1.50e+00    0    1.06e+00
2006 02 26  0725    53792   26700      0    1.46e+00    0    1.02e+00
2006 02 26  0730    53792   27000      0    1.50e+00    0    1.04e+00
2006 02 26  0735    53792   27300      0    1.53e+00    0    1.06e+00
2006 02 26  0740    53792   27600      0    1.50e+00    0    1.06e+00
2006 02 26  0745    53792   27900      0    1.50e+00    0    1.05e+00
2006 02 26  0750    53792   28200      0    1.48e+00    0    1.03e+00
2006 02 26  0755    53792   28500      0    1.52e+00    0    1.07e+00
2006 02 26  0800    53792   28800      0    1.48e+00    0    1.04e+00
2006 02 26  0805    53792   29100      0    1.49e+00    0    1.04e+00
2006 02 26  0810    53792   29400      0    1.49e+00    0    1.04e+00
2006 02 26  0815    53792   29700      0    1.52e+00    0    1.05e+00
2006 02 26  0820    53792   30000      0    1.48e+00    0    1.04e+00
2006 02 26  0825    53792   30300      0    1.50e+00    0    1.05e+00
2006 02 26  0830    53792   30600      0    1.50e+00    0    1.06e+00
2006 02 26  0835    53792   30900      0    1.51e+00    0    1.05e+00
2006 02 26  0840    53792   31200      0    1.50e+00    0    1.04e+00
2006 02 26  0845    53792   31500      0    1.49e+00    0    1.04e+00
2006 02 26  0850    53792   31800      0    1.49e+00    0    1.05e+00
2006 02 26  0855    53792   32100      0    1.45e+00    0    1.02e+00
2006 02 26  0900    53792   32400      0    1.50e+00    0    1.05e+00
2006 02 26  0905    53792   32700      0    1.50e+00    0    1.05e+00
2006 02 26  0910    53792   33000      0    1.54e+00    0    1.08e+00
2006 02 26  0915    53792   33300      0    1.47e+00    0    1.03e+00
2006 02 26  0920    53792   33600      0    1.50e+00    0    1.04e+00
2006 02 26  0925    53792   33900      0    1.49e+00    0    1.05e+00
2006 02 26  0930    53792   34200      0    1.51e+00    0    1.06e+00
2006 02 26  0935    53792   34500      0    1.50e+00    0    1.06e+00
2006 02 26  0940    53792   34800      0    1.50e+00    0    1.05e+00
2006 02 26  0945    53792   35100      0    1.51e+00    0    1.06e+00
2006 02 26  0950    53792   35400      0    1.49e+00    0    1.05e+00
2006 02 26  0955    53792   35700      0    1.54e+00    0    1.07e+00
2006 02 26  1000    53792   36000      0    1.52e+00    0    1.07e+00
2006 02 26  1005    53792   36300      0    1.48e+00    0    1.03e+00
2006 02 26  1010    53792   36600      0    1.48e+00    0    1.04e+00
2006 02 26  1015    53792   36900      0    1.49e+00    0    1.04e+00
2006 02 26  1020    53792   37200      0    1.49e+00    0    1.04e+00
2006 02 26  1025    53792   37500      0    1.50e+00    0    1.05e+00
2006 02 26  1030    53792   37800      0    1.52e+00    0    1.06e+00
2006 02 26  1035    53792   38100      0    1.47e+00    0    1.03e+00
2006 02 26  1040    53792   38400      0    1.51e+00    0    1.05e+00
2006 02 26  1045    53792   38700      0    1.48e+00    0    1.04e+00
2006 02 26  1050    53792   39000      0    1.48e+00    0    1.04e+00
2006 02 26  1055    53792   39300      0    1.50e+00    0    1.06e+00
2006 02 26  1100    53792   39600      0    1.50e+00    0    1.05e+00
2006 02 26  1105    53792   39900      0    1.50e+00    0    1.06e+00
2006 02 26  1110    53792   40200      0    1.47e+00    0    1.02e+00
2006 02 26  1115    53792   40500      0    1.52e+00    0    1.07e+00
2006 02 26  1120    53792   40800      0    1.50e+00    0    1.05e+00
2006 02 26  1125    53792   41100      0    1.50e+00    0    1.04e+00
2006 02 26  1130    53792   41400      0    1.50e+00    0    1.05e+00
2006 02 26  1135    53792   41700      0    1.50e+00    0    1.06e+00
2006 02 26  1140    53792   42000      0    1.51e+00    0    1.07e+00
2006 02 26  1145    53792   42300      0    1.51e+00    0    1.07e+00
2006 02 26  1150    53792   42600      0    1.49e+00    0    1.04e+00
2006 02 26  1155    53792   42900      0    1.52e+00    0    1.08e+00
2006 02 26  1200    53792   43200      0    1.49e+00    0    1.04e+00
2006 02 26  1205    53792   43500      0    1.50e+00    0    1.06e+00
2006 02 26  1210    53792   43800      0    1.49e+00    0    1.05e+00
2006 02 26  1215    53792   44100      0    1.48e+00    0    1.05e+00
2006 02 26  1220    53792   44400      0    1.54e+00    0    1.09e+00
2006 02 26  1225    53792   44700      0    1.54e+00    0    1.07e+00
2006 02 26  1230    53792   45000      0    1.47e+00    0    1.03e+00
2006 02 26  1235    53792   45300      0    1.53e+00    0    1.07e+00
2006 02 26  1240    53792   45600      0    1.49e+00    0    1.04e+00
2006 02 26  1245    53792   45900      0    1.50e+00    0    1.05e+00
2006 02 26  1250    53792   46200      0    1.49e+00    0    1.05e+00
2006 02 26  1255    53792   46500      0    1.46e+00    0    1.03e+00
2006 02 26  1300    53792   46800      0    1.46e+00    0    1.02e+00
2006 02 26  1305    53792   47100      0    1.51e+00    0    1.05e+00
2006 02 26  1310    53792   47400      0    1.47e+00    0    1.03e+00
2006 02 26  1315    53792   47700      0    1.49e+00    0    1.05e+00
2006 02 26  1320    53792   48000      0    1.49e+00    0    1.05e+00
2006 02 26  1325    53792   48300      0    1.49e+00    0    1.06e+00
2006 02 26  1330    53792   48600      0    1.48e+00    0    1.04e+00
2006 02 26  1335    53792   48900      0    1.50e+00    0    1.05e+00
2006 02 26  1340    53792   49200      0    1.55e+00    0    1.08e+00
2006 02 26  1345    53792   49500      0    1.46e+00    0    1.02e+00
2006 02 26  1350    53792   49800      0    1.51e+00    0    1.06e+00
2006 02 26  1355    53792   50100      0    1.58e+00    0    1.11e+00
2006 02 26  1400    53792   50400      0    1.50e+00    0    1.05e+00
2006 02 26  1405    53792   50700      0    1.46e+00    0    1.03e+00
2006 02 26  1410    53792   51000      0    1.49e+00    0    1.04e+00
2006 02 26  1415    53792   51300      0    1.50e+00    0    1.06e+00
2006 02 26  1420    53792   51600      0    1.50e+00    0    1.06e+00
2006 02 26  1425    53792   51900      0    1.49e+00    0    1.04e+00
2006 02 26  1430    53792   52200      0    1.50e+00    0    1.07e+00
2006 02 26  1435    53792   52500      0    1.49e+00    0    1.04e+00
2006 02 26  1440    53792   52800      0    1.50e+00    0    1.05e+00
2006 02 26  1445    53792   53100      0    1.52e+00    0    1.08e+00
2006 02 26  1450    53792   53400      0    1.51e+00    0    1.07e+00
2006 02 26  1455    53792   53700      0    1.51e+00    0    1.07e+00
2006 02 26  1500    53792   54000      0    1.49e+00    0    1.04e+00
2006 02 26  1505    53792   54300      0    1.49e+00    0    1.05e+00
2006 02 26  1510    53792   54600      0    1.49e+00    0    1.04e+00
2006 02 26  1515    53792   54900      0    1.49e+00    0    1.05e+00
2006 02 26  1520    53792   55200      0    1.48e+00    0    1.02e+00
2006 02 26  1525    53792   55500      0    1.54e+00    0    1.07e+00
2006 02 26  1530    53792   55800      0    1.52e+00    0    1.08e+00
2006 02 26  1535    53792   56100      0    1.50e+00    0    1.06e+00
2006 02 26  1540    53792   56400      0    1.51e+00    0    1.06e+00
2006 02 26  1545    53792   56700      0    1.52e+00    0    1.06e+00
2006 02 26  1550    53792   57000      0    1.49e+00    0    1.04e+00
2006 02 26  1555    53792   57300      0    1.48e+00    0    1.05e+00
2006 02 26  1600    53792   57600      0    1.49e+00    0    1.05e+00
2006 02 26  1605    53792   57900      0    1.52e+00    0    1.08e+00
2006 02 26  1610    53792   58200      0    1.51e+00    0    1.05e+00
2006 02 26  1615    53792   58500      0    1.46e+00    0    1.03e+00
2006 02 26  1620    53792   58800      0    1.47e+00    0    1.04e+00
2006 02 26  1625    53792   59100      0    1.49e+00    0    1.05e+00
2006 02 26  1630    53792   59400      0    1.53e+00    0    1.08e+00
2006 02 26  1635    53792   59700      0    1.51e+00    0    1.06e+00
2006 02 26  1640    53792   60000      0    1.50e+00    0    1.05e+00
2006 02 26  1645    53792   60300      0    1.48e+00    0    1.03e+00
2006 02 26  1650    53792   60600      0    1.49e+00    0    1.06e+00
2006 02 26  1655    53792   60900      0    1.50e+00    0    1.06e+00
2006 02 26  1700    53792   61200      0    1.52e+00    0    1.09e+00
2006 02 26  1705    53792   61500      0    1.50e+00    0    1.05e+00
2006 02 26  1710    53792   61800      0    1.56e+00    0    1.10e+00
2006 02 26  1715    53792   62100      0    1.48e+00    0    1.05e+00
2006 02 26  1720    53792   62400      0    1.51e+00    0    1.06e+00
2006 02 26  1725    53792   62700      0    1.55e+00    0    1.09e+00
2006 02 26  1730    53792   63000      0    1.52e+00    0    1.05e+00
2006 02 26  1735    53792   63300      0    1.48e+00    0    1.04e+00
2006 02 26  1740    53792   63600      0    1.50e+00    0    1.05e+00
2006 02 26  1745    53792   63900      0    1.51e+00    0    1.07e+00
2006 02 26  1750    53792   64200      0    1.51e+00    0    1.07e+00
2006 02 26  1755    53792   64500      0    1.50e+00    0    1.05e+00
2006 02 26  1800    53792   64800      0    1.50e+00    0    1.06e+00
2006 02 26  1805    53792   65100      0    1.50e+00    0    1.05e+00
2006 02 26  1810    53792   65400      0    1.53e+00    0    1.07e+00
2006 02 26  1815    53792   65700      0    1.50e+00    0    1.05e+00
2006 02 26  1820    53792   66000      0    1.48e+00    0    1.05e+00
2006 02 26  1825    53792   66300      0    1.52e+00    0    1.06e+00
2006 02 26  1830    53792   66600      0    1.50e+00    0    1.05e+00
2006 02 26  1835    53792   66900      0    1.50e+00    0    1.07e+00
2006 02 26  1840    53792   67200      0    1.53e+00    0    1.07e+00
2006 02 26  1845    53792   67500      0    1.49e+00    0    1.05e+00
2006 02 26  1850    53792   67800      0    1.51e+00    0    1.06e+00
2006 02 26  1855    53792   68100      0    1.49e+00    0    1.04e+00
2006 02 26  1900    53792   68400      0    1.53e+00    0    1.07e+00
2006 02 26  1905    53792   68700      0    1.48e+00    0    1.03e+00
2006 02 26  1910    53792   69000      0    1.48e+00    0    1.04e+00
2006 02 26  1915    53792   69300      0    1.48e+00    0    1.04e+00
2006 02 26  1920    53792   69600      0    1.51e+00    0    1.06e+00
2006 02 26  1925    53792   69900      0    1.50e+00    0    1.06e+00
2006 02 26  1930    53792   70200      0    1.51e+00    0    1.06e+00
2006 02 26  1935    53792   70500      0    1.51e+00    0    1.07e+00
2006 02 26  1940    53792   70800      0    1.49e+00    0    1.04e+00
2006 02 26  1945    53792   71100      0    1.53e+00    0    1.08e+00
2006 02 26  1950    53792   71400      0    1.43e+00    0    1.01e+00
2006 02 26  1955    53792   71700      0    1.52e+00    0    1.06e+00
2006 02 26  2000    53792   72000      0    1.50e+00    0    1.06e+00
2006 02 26  2005    53792   72300      0    1.53e+00    0    1.07e+00
2006 02 26  2010    53792   72600      0    1.52e+00    0    1.07e+00
2006 02 26  2015    53792   72900      0    1.52e+00    0    1.06e+00
2006 02 26  2020    53792   73200      0    1.50e+00    0    1.05e+00
2006 02 26  2025    53792   73500      0    1.50e+00    0    1.06e+00
2006 02 26  2030    53792   73800      0    1.50e+00    0    1.05e+00
2006 02 26  2035    53792   74100      0    1.51e+00    0    1.06e+00
2006 02 26  2040    53792   74400      0    1.49e+00    0    1.04e+00
2006 02 26  2045    53792   74700      0    1.52e+00    0    1.07e+00
2006 02 26  2050    53792   75000      0    1.50e+00    0    1.05e+00
2006 02 26  2055    53792   75300      0    1.52e+00    0    1.06e+00
2006 02 26  2100    53792   75600      0    1.51e+00    0    1.06e+00
2006 02 26  2105    53792   75900      0    1.50e+00    0    1.06e+00
2006 02 26  2110    53792   76200      0    1.51e+00    0    1.06e+00
2006 02 26  2115    53792   76500      0    1.54e+00    0    1.07e+00
2006 02 26  2120    53792   76800      0    1.49e+00    0    1.05e+00
2006 02 26  2125    53792   77100      0    1.52e+00    0    1.08e+00
2006 02 26  2130    53792   77400      0    1.50e+00    0    1.05e+00
2006 02 26  2135    53792   77700      0    1.51e+00    0    1.06e+00
2006 02 26  2140    53792   78000      0    1.50e+00    0    1.05e+00
2006 02 26  2145    53792   78300      0    1.52e+00    0    1.07e+00
2006 02 26  2150    53792   78600      0    1.51e+00    0    1.06e+00
2006 02 26  2155    53792   78900      0    1.52e+00    0    1.07e+00
2006 02 26  2200    53792   79200      0    1.51e+00    0    1.05e+00
2006 02 26  2205    53792   79500      0    1.47e+00    0    1.03e+00
2006 02 26  2210    53792   79800      0    1.51e+00    0    1.06e+00
2006 02 26  2215    53792   80100      0    1.53e+00    0    1.09e+00
2006 02 26  2220    53792   80400      0    1.52e+00    0    1.06e+00
2006 02 26  2225    53792   80700      0    1.48e+00    0    1.03e+00
2006 02 26  2230    53792   81000      0    1.51e+00    0    1.06e+00
2006 02 26  2235    53792   81300      0    1.51e+00    0    1.07e+00
2006 02 26  2240    53792   81600      0    1.52e+00    0    1.06e+00
2006 02 26  2245    53792   81900      0    1.53e+00    0    1.08e+00
2006 02 26  2250    53792   82200      0    1.57e+00    0    1.10e+00
2006 02 26  2255    53792   82500      0    1.53e+00    0    1.07e+00
2006 02 26  2300    53792   82800      0    1.49e+00    0    1.05e+00
2006 02 26  2305    53792   83100      0    1.51e+00    0    1.06e+00
2006 02 26  2310    53792   83400      0    1.50e+00    0    1.05e+00
2006 02 26  2315    53792   83700      0    1.56e+00    0    1.09e+00
2006 02 26  2320    53792   84000      0    1.52e+00    0    1.07e+00
2006 02 26  2325    53792   84300      0    1.57e+00    0    1.11e+00
2006 02 26  2330    53792   84600      0    1.53e+00    0    1.07e+00
2006 02 26  2335    53792   84900      0    1.54e+00    0    1.10e+00
2006 02 26  2340    53792   85200      0    1.55e+00    0    1.10e+00
2006 02 26  2345    53792   85500      0    1.52e+00    0    1.06e+00
2006 02 26  2350    53792   85800      0    1.52e+00    0    1.08e+00
2006 02 26  2355    53792   86100      0    1.52e+00    0    1.07e+00
