:Data_list: 20061125_ace_sis_5m.txt
:Created: 2006 Nov 26 0011 UT
# Prepared by the U.S. Dept. of Commerce, NOAA, Space Environment Center.
# Please send comments and suggestions to SEC.Webmaster@noaa.gov 
# 
# Units: proton flux p/cs2-sec-ster
# Status(S): 0 = nominal data, 1 to 8 = bad data record, 9 = no data
# Missing data values: -1.00e+05
# Source: ACE Satellite - Solar Isotope Spectrometer
#
# 5-minute averaged Real-time Integral Flux of High-energy Solar Protons
# 
#                 Modified Seconds
# UT Date   Time   Julian  of the      ---- Integral Proton Flux ----
# YR MO DA  HHMM     Day     Day       S    > 10 MeV    S    > 30 MeV
#--------------------------------------------------------------------
2006 11 25  0000    54064       0      0    1.70e+00    0    1.20e+00
2006 11 25  0005    54064     300      0    1.71e+00    0    1.19e+00
2006 11 25  0010    54064     600      0    1.75e+00    0    1.23e+00
2006 11 25  0015    54064     900      0    1.72e+00    0    1.21e+00
2006 11 25  0020    54064    1200      0    1.74e+00    0    1.21e+00
2006 11 25  0025    54064    1500      0    1.69e+00    0    1.19e+00
2006 11 25  0030    54064    1800      0    1.74e+00    0    1.21e+00
2006 11 25  0035    54064    2100      0    1.72e+00    0    1.22e+00
2006 11 25  0040    54064    2400      0    1.75e+00    0    1.23e+00
2006 11 25  0045    54064    2700      0    1.74e+00    0    1.22e+00
2006 11 25  0050    54064    3000      0    1.72e+00    0    1.23e+00
2006 11 25  0055    54064    3300      0    1.74e+00    0    1.22e+00
2006 11 25  0100    54064    3600      0    1.76e+00    0    1.24e+00
2006 11 25  0105    54064    3900      0    1.73e+00    0    1.22e+00
2006 11 25  0110    54064    4200      0    1.74e+00    0    1.22e+00
2006 11 25  0115    54064    4500      0    1.75e+00    0    1.23e+00
2006 11 25  0120    54064    4800      0    1.74e+00    0    1.23e+00
2006 11 25  0125    54064    5100      0    1.78e+00    0    1.25e+00
2006 11 25  0130    54064    5400      0    1.70e+00    0    1.21e+00
2006 11 25  0135    54064    5700      0    1.71e+00    0    1.20e+00
2006 11 25  0140    54064    6000      0    1.69e+00    0    1.19e+00
2006 11 25  0145    54064    6300      0    1.73e+00    0    1.21e+00
2006 11 25  0150    54064    6600      0    1.72e+00    0    1.21e+00
2006 11 25  0155    54064    6900      0    1.73e+00    0    1.19e+00
2006 11 25  0200    54064    7200      0    1.73e+00    0    1.22e+00
2006 11 25  0205    54064    7500      0    1.72e+00    0    1.22e+00
2006 11 25  0210    54064    7800      0    1.76e+00    0    1.24e+00
2006 11 25  0215    54064    8100      0    1.71e+00    0    1.19e+00
2006 11 25  0220    54064    8400      0    1.73e+00    0    1.21e+00
2006 11 25  0225    54064    8700      0    1.73e+00    0    1.21e+00
2006 11 25  0230    54064    9000      0    1.72e+00    0    1.21e+00
2006 11 25  0235    54064    9300      0    1.75e+00    0    1.23e+00
2006 11 25  0240    54064    9600      0    1.72e+00    0    1.21e+00
2006 11 25  0245    54064    9900      0    1.70e+00    0    1.19e+00
2006 11 25  0250    54064   10200      0    1.74e+00    0    1.22e+00
2006 11 25  0255    54064   10500      0    1.73e+00    0    1.20e+00
2006 11 25  0300    54064   10800      0    1.77e+00    0    1.25e+00
2006 11 25  0305    54064   11100      0    1.71e+00    0    1.20e+00
2006 11 25  0310    54064   11400      0    1.74e+00    0    1.23e+00
2006 11 25  0315    54064   11700      0    1.77e+00    0    1.23e+00
2006 11 25  0320    54064   12000      0    1.77e+00    0    1.25e+00
2006 11 25  0325    54064   12300      0    1.72e+00    0    1.21e+00
2006 11 25  0330    54064   12600      0    1.68e+00    0    1.17e+00
2006 11 25  0335    54064   12900      0    1.70e+00    0    1.19e+00
2006 11 25  0340    54064   13200      0    1.74e+00    0    1.21e+00
2006 11 25  0345    54064   13500      0    1.70e+00    0    1.20e+00
2006 11 25  0350    54064   13800      0    1.71e+00    0    1.20e+00
2006 11 25  0355    54064   14100      0    1.71e+00    0    1.20e+00
2006 11 25  0400    54064   14400      0    1.71e+00    0    1.20e+00
2006 11 25  0405    54064   14700      0    1.72e+00    0    1.21e+00
2006 11 25  0410    54064   15000      0    1.67e+00    0    1.18e+00
2006 11 25  0415    54064   15300      0    1.69e+00    0    1.18e+00
2006 11 25  0420    54064   15600      0    1.66e+00    0    1.17e+00
2006 11 25  0425    54064   15900      0    1.71e+00    0    1.20e+00
2006 11 25  0430    54064   16200      0    1.71e+00    0    1.20e+00
2006 11 25  0435    54064   16500      0    1.70e+00    0    1.19e+00
2006 11 25  0440    54064   16800      0    1.70e+00    0    1.20e+00
2006 11 25  0445    54064   17100      0    1.69e+00    0    1.19e+00
2006 11 25  0450    54064   17400      0    1.71e+00    0    1.20e+00
2006 11 25  0455    54064   17700      0    1.70e+00    0    1.20e+00
2006 11 25  0500    54064   18000      0    1.72e+00    0    1.21e+00
2006 11 25  0505    54064   18300      0    1.63e+00    0    1.15e+00
2006 11 25  0510    54064   18600      0    1.72e+00    0    1.21e+00
2006 11 25  0515    54064   18900      0    1.69e+00    0    1.19e+00
2006 11 25  0520    54064   19200      0    1.71e+00    0    1.20e+00
2006 11 25  0525    54064   19500      0    1.76e+00    0    1.24e+00
2006 11 25  0530    54064   19800      0    1.67e+00    0    1.18e+00
2006 11 25  0535    54064   20100      0    1.69e+00    0    1.18e+00
2006 11 25  0540    54064   20400      0    1.64e+00    0    1.14e+00
2006 11 25  0545    54064   20700      0    1.67e+00    0    1.17e+00
2006 11 25  0550    54064   21000      0    1.71e+00    0    1.20e+00
2006 11 25  0555    54064   21300      0    1.66e+00    0    1.17e+00
2006 11 25  0600    54064   21600      0    1.70e+00    0    1.21e+00
2006 11 25  0605    54064   21900      0    1.71e+00    0    1.19e+00
2006 11 25  0610    54064   22200      0    1.69e+00    0    1.19e+00
2006 11 25  0615    54064   22500      0    1.67e+00    0    1.17e+00
2006 11 25  0620    54064   22800      0    1.66e+00    0    1.17e+00
2006 11 25  0625    54064   23100      0    1.69e+00    0    1.18e+00
2006 11 25  0630    54064   23400      0    1.69e+00    0    1.18e+00
2006 11 25  0635    54064   23700      0    1.72e+00    0    1.22e+00
2006 11 25  0640    54064   24000      0    1.70e+00    0    1.20e+00
2006 11 25  0645    54064   24300      0    1.67e+00    0    1.18e+00
2006 11 25  0650    54064   24600      0    1.71e+00    0    1.20e+00
2006 11 25  0655    54064   24900      0    1.68e+00    0    1.17e+00
2006 11 25  0700    54064   25200      0    1.71e+00    0    1.21e+00
2006 11 25  0705    54064   25500      0    1.73e+00    0    1.22e+00
2006 11 25  0710    54064   25800      0    1.73e+00    0    1.20e+00
2006 11 25  0715    54064   26100      0    1.70e+00    0    1.19e+00
2006 11 25  0720    54064   26400      0    1.69e+00    0    1.18e+00
2006 11 25  0725    54064   26700      0    1.69e+00    0    1.19e+00
2006 11 25  0730    54064   27000      0    1.72e+00    0    1.20e+00
2006 11 25  0735    54064   27300      0    1.69e+00    0    1.18e+00
2006 11 25  0740    54064   27600      0    1.70e+00    0    1.19e+00
2006 11 25  0745    54064   27900      0    1.65e+00    0    1.15e+00
2006 11 25  0750    54064   28200      0    1.74e+00    0    1.21e+00
2006 11 25  0755    54064   28500      0    1.70e+00    0    1.19e+00
2006 11 25  0800    54064   28800      0    1.67e+00    0    1.18e+00
2006 11 25  0805    54064   29100      0    1.70e+00    0    1.19e+00
2006 11 25  0810    54064   29400      0    1.71e+00    0    1.20e+00
2006 11 25  0815    54064   29700      0    1.67e+00    0    1.17e+00
2006 11 25  0820    54064   30000      0    1.70e+00    0    1.19e+00
2006 11 25  0825    54064   30300      0    1.72e+00    0    1.20e+00
2006 11 25  0830    54064   30600      0    1.69e+00    0    1.19e+00
2006 11 25  0835    54064   30900      0    1.68e+00    0    1.19e+00
2006 11 25  0840    54064   31200      0    1.73e+00    0    1.22e+00
2006 11 25  0845    54064   31500      0    1.77e+00    0    1.24e+00
2006 11 25  0850    54064   31800      0    1.66e+00    0    1.16e+00
2006 11 25  0855    54064   32100      0    1.70e+00    0    1.18e+00
2006 11 25  0900    54064   32400      0    1.72e+00    0    1.21e+00
2006 11 25  0905    54064   32700      0    1.73e+00    0    1.21e+00
2006 11 25  0910    54064   33000      0    1.69e+00    0    1.19e+00
2006 11 25  0915    54064   33300      0    1.76e+00    0    1.24e+00
2006 11 25  0920    54064   33600      0    1.73e+00    0    1.21e+00
2006 11 25  0925    54064   33900      0    1.62e+00    0    1.14e+00
2006 11 25  0930    54064   34200      0    1.73e+00    0    1.21e+00
2006 11 25  0935    54064   34500      0    1.69e+00    0    1.20e+00
2006 11 25  0940    54064   34800      0    1.71e+00    0    1.20e+00
2006 11 25  0945    54064   35100      0    1.71e+00    0    1.20e+00
2006 11 25  0950    54064   35400      0    1.71e+00    0    1.20e+00
2006 11 25  0955    54064   35700      0    1.71e+00    0    1.20e+00
2006 11 25  1000    54064   36000      0    1.74e+00    0    1.21e+00
2006 11 25  1005    54064   36300      0    1.70e+00    0    1.19e+00
2006 11 25  1010    54064   36600      0    1.74e+00    0    1.23e+00
2006 11 25  1015    54064   36900      0    1.71e+00    0    1.21e+00
2006 11 25  1020    54064   37200      0    1.69e+00    0    1.19e+00
2006 11 25  1025    54064   37500      0    1.71e+00    0    1.20e+00
2006 11 25  1030    54064   37800      0    1.70e+00    0    1.19e+00
2006 11 25  1035    54064   38100      0    1.73e+00    0    1.19e+00
2006 11 25  1040    54064   38400      0    1.71e+00    0    1.20e+00
2006 11 25  1045    54064   38700      0    1.74e+00    0    1.23e+00
2006 11 25  1050    54064   39000      0    1.76e+00    0    1.23e+00
2006 11 25  1055    54064   39300      0    1.69e+00    0    1.19e+00
2006 11 25  1100    54064   39600      0    1.76e+00    0    1.23e+00
2006 11 25  1105    54064   39900      0    1.68e+00    0    1.18e+00
2006 11 25  1110    54064   40200      0    1.69e+00    0    1.18e+00
2006 11 25  1115    54064   40500      0    1.68e+00    0    1.17e+00
2006 11 25  1120    54064   40800      0    1.71e+00    0    1.20e+00
2006 11 25  1125    54064   41100      0    1.70e+00    0    1.18e+00
2006 11 25  1130    54064   41400      0    1.70e+00    0    1.21e+00
2006 11 25  1135    54064   41700      0    1.69e+00    0    1.18e+00
2006 11 25  1140    54064   42000      0    1.72e+00    0    1.21e+00
2006 11 25  1145    54064   42300      0    1.70e+00    0    1.19e+00
2006 11 25  1150    54064   42600      0    1.71e+00    0    1.20e+00
2006 11 25  1155    54064   42900      0    1.70e+00    0    1.19e+00
2006 11 25  1200    54064   43200      0    1.68e+00    0    1.16e+00
2006 11 25  1205    54064   43500      0    1.67e+00    0    1.16e+00
2006 11 25  1210    54064   43800      0    1.72e+00    0    1.21e+00
2006 11 25  1215    54064   44100      0    1.70e+00    0    1.19e+00
2006 11 25  1220    54064   44400      0    1.70e+00    0    1.19e+00
2006 11 25  1225    54064   44700      0    1.71e+00    0    1.20e+00
2006 11 25  1230    54064   45000      0    1.69e+00    0    1.19e+00
2006 11 25  1235    54064   45300      0    1.70e+00    0    1.19e+00
2006 11 25  1240    54064   45600      0    1.73e+00    0    1.21e+00
2006 11 25  1245    54064   45900      0    1.71e+00    0    1.21e+00
2006 11 25  1250    54064   46200      0    1.75e+00    0    1.24e+00
2006 11 25  1255    54064   46500      0    1.70e+00    0    1.19e+00
2006 11 25  1300    54064   46800      0    1.76e+00    0    1.23e+00
2006 11 25  1305    54064   47100      0    1.71e+00    0    1.20e+00
2006 11 25  1310    54064   47400      0    1.70e+00    0    1.19e+00
2006 11 25  1315    54064   47700      0    1.70e+00    0    1.19e+00
2006 11 25  1320    54064   48000      0    1.71e+00    0    1.20e+00
2006 11 25  1325    54064   48300      0    1.71e+00    0    1.19e+00
2006 11 25  1330    54064   48600      0    1.73e+00    0    1.21e+00
2006 11 25  1335    54064   48900      0    1.72e+00    0    1.20e+00
2006 11 25  1340    54064   49200      0    1.72e+00    0    1.21e+00
2006 11 25  1345    54064   49500      0    1.68e+00    0    1.18e+00
2006 11 25  1350    54064   49800      0    1.73e+00    0    1.21e+00
2006 11 25  1355    54064   50100      0    1.70e+00    0    1.19e+00
2006 11 25  1400    54064   50400      0    1.73e+00    0    1.20e+00
2006 11 25  1405    54064   50700      0    1.70e+00    0    1.20e+00
2006 11 25  1410    54064   51000      0    1.70e+00    0    1.21e+00
2006 11 25  1415    54064   51300      0    1.69e+00    0    1.18e+00
2006 11 25  1420    54064   51600      0    1.70e+00    0    1.19e+00
2006 11 25  1425    54064   51900      0    1.72e+00    0    1.20e+00
2006 11 25  1430    54064   52200      0    1.71e+00    0    1.20e+00
2006 11 25  1435    54064   52500      0    1.75e+00    0    1.23e+00
2006 11 25  1440    54064   52800      0    1.70e+00    0    1.19e+00
2006 11 25  1445    54064   53100      0    1.73e+00    0    1.20e+00
2006 11 25  1450    54064   53400      0    1.72e+00    0    1.21e+00
2006 11 25  1455    54064   53700      0    1.73e+00    0    1.22e+00
2006 11 25  1500    54064   54000      0    1.73e+00    0    1.21e+00
2006 11 25  1505    54064   54300      0    1.71e+00    0    1.20e+00
2006 11 25  1510    54064   54600      0    1.70e+00    0    1.18e+00
2006 11 25  1515    54064   54900      0    1.72e+00    0    1.20e+00
2006 11 25  1520    54064   55200      0    1.68e+00    0    1.18e+00
2006 11 25  1525    54064   55500      0    1.67e+00    0    1.16e+00
2006 11 25  1530    54064   55800      0    1.72e+00    0    1.20e+00
2006 11 25  1535    54064   56100      0    1.74e+00    0    1.22e+00
2006 11 25  1540    54064   56400      0    1.70e+00    0    1.19e+00
2006 11 25  1545    54064   56700      0    1.69e+00    0    1.18e+00
2006 11 25  1550    54064   57000      0    1.69e+00    0    1.19e+00
2006 11 25  1555    54064   57300      0    1.75e+00    0    1.22e+00
2006 11 25  1600    54064   57600      0    1.72e+00    0    1.19e+00
2006 11 25  1605    54064   57900      0    1.73e+00    0    1.22e+00
2006 11 25  1610    54064   58200      0    1.72e+00    0    1.20e+00
2006 11 25  1615    54064   58500      0    1.72e+00    0    1.21e+00
2006 11 25  1620    54064   58800      0    1.83e+00    0    1.28e+00
2006 11 25  1625    54064   59100      0    2.53e+01    0    2.50e+01
2006 11 25  1630    54064   59400      0    6.13e+03    0    3.01e+00
2006 11 25  1635    54064   59700      0    1.85e+01    0    6.00e-01
2006 11 25  1640    54064   60000      0    8.06e+02    0    2.04e+00
2006 11 25  1645    54064   60300      0    3.67e+00    0    1.60e+00
2006 11 25  1650    54064   60600      0    1.40e+01    0    4.80e-01
2006 11 25  1655    54064   60900      0    1.06e+03    0    1.56e+00
2006 11 25  1700    54064   61200      0    4.10e+03    0    4.99e+01
2006 11 25  1705    54064   61500      0    1.10e+02    0    1.32e+01
2006 11 25  1710    54064   61800      0    4.10e+03    0    3.48e+01
2006 11 25  1715    54064   62100      0    1.84e+01    0    1.69e+01
2006 11 25  1720    54064   62400      0    6.34e+03    0    2.25e+01
2006 11 25  1725    54064   62700      0    4.10e+03    0    2.53e+01
2006 11 25  1730    54064   63000      0    1.19e+03    0    2.72e+01
2006 11 25  1735    54064   63300      0    3.08e+03    0    1.79e+01
2006 11 25  1740    54064   63600      0    3.18e+03    0    3.40e+01
2006 11 25  1745    54064   63900      0    7.92e+02    0    1.37e+01
2006 11 25  1750    54064   64200      0    4.10e+01    0    3.95e+01
2006 11 25  1755    54064   64500      0    2.13e+02    0    1.82e+01
2006 11 25  1800    54064   64800      0    2.46e+01    0    1.69e+01
2006 11 25  1805    54064   65100      0    3.92e+00    0    1.38e+01
2006 11 25  1810    54064   65400      0    3.29e+03    0    3.48e+01
2006 11 25  1815    54064   65700      0    3.81e+02    0    2.15e+01
2006 11 25  1820    54064   66000      0    3.22e+03    0    2.01e+01
2006 11 25  1825    54064   66300      0    3.63e+01    0    3.43e+01
2006 11 25  1830    54064   66600      0    1.44e+02    0    1.82e+01
2006 11 25  1835    54064   66900      0    1.55e+01    0    1.35e+01
2006 11 25  1840    54064   67200      0    1.20e+02    0    2.56e+01
2006 11 25  1845    54064   67500      0    2.66e+02    0    5.26e+01
2006 11 25  1850    54064   67800      0    1.19e+02    0    1.28e+01
2006 11 25  1855    54064   68100      0    2.02e+02    0    2.38e+01
2006 11 25  1900    54064   68400      0    1.39e+01    0    1.28e+01
2006 11 25  1905    54064   68700      0    3.21e+01    0    2.24e+01
2006 11 25  1910    54064   69000      0    2.46e+00    0    1.37e+01
2006 11 25  1915    54064   69300      0    4.06e+01    0    1.69e+01
2006 11 25  1920    54064   69600      0    4.80e+02    0    1.80e+01
2006 11 25  1925    54064   69900      0    3.12e+01    0    1.33e+01
2006 11 25  1930    54064   70200      0    1.76e+00    0    1.24e+00
2006 11 25  1935    54064   70500      0    1.75e+00    0    1.22e+00
2006 11 25  1940    54064   70800      0    1.76e+00    0    1.24e+00
2006 11 25  1945    54064   71100      0    1.73e+00    0    1.21e+00
2006 11 25  1950    54064   71400      0    1.75e+00    0    1.23e+00
2006 11 25  1955    54064   71700      0    1.72e+00    0    1.21e+00
2006 11 25  2000    54064   72000      0    1.74e+00    0    1.23e+00
2006 11 25  2005    54064   72300      0    1.74e+00    0    1.23e+00
2006 11 25  2010    54064   72600      0    1.72e+00    0    1.20e+00
2006 11 25  2015    54064   72900      0    1.72e+00    0    1.20e+00
2006 11 25  2020    54064   73200      0    1.71e+00    0    1.20e+00
2006 11 25  2025    54064   73500      0    1.70e+00    0    1.19e+00
2006 11 25  2030    54064   73800      0    1.71e+00    0    1.21e+00
2006 11 25  2035    54064   74100      0    1.69e+00    0    1.18e+00
2006 11 25  2040    54064   74400      0    1.71e+00    0    1.20e+00
2006 11 25  2045    54064   74700      0    1.69e+00    0    1.19e+00
2006 11 25  2050    54064   75000      0    1.70e+00    0    1.19e+00
2006 11 25  2055    54064   75300      9   -1.00e+05    9   -1.00e+05
2006 11 25  2100    54064   75600      9   -1.00e+05    9   -1.00e+05
2006 11 25  2105    54064   75900      9   -1.00e+05    9   -1.00e+05
2006 11 25  2110    54064   76200      9   -1.00e+05    9   -1.00e+05
2006 11 25  2115    54064   76500      0    1.70e+00    0    1.19e+00
2006 11 25  2120    54064   76800      0    1.74e+00    0    1.22e+00
2006 11 25  2125    54064   77100      0    1.70e+00    0    1.20e+00
2006 11 25  2130    54064   77400      0    1.73e+00    0    1.21e+00
2006 11 25  2135    54064   77700      0    1.72e+00    0    1.20e+00
2006 11 25  2140    54064   78000      0    1.68e+00    0    1.17e+00
2006 11 25  2145    54064   78300      0    1.71e+00    0    1.20e+00
2006 11 25  2150    54064   78600      0    1.74e+00    0    1.22e+00
2006 11 25  2155    54064   78900      0    1.67e+00    0    1.16e+00
2006 11 25  2200    54064   79200      0    1.67e+00    0    1.17e+00
2006 11 25  2205    54064   79500      0    1.73e+00    0    1.21e+00
2006 11 25  2210    54064   79800      0    1.72e+00    0    1.21e+00
2006 11 25  2215    54064   80100      0    1.74e+00    0    1.22e+00
2006 11 25  2220    54064   80400      0    1.70e+00    0    1.20e+00
2006 11 25  2225    54064   80700      0    1.73e+00    0    1.22e+00
2006 11 25  2230    54064   81000      0    1.72e+00    0    1.22e+00
2006 11 25  2235    54064   81300      0    1.75e+00    0    1.23e+00
2006 11 25  2240    54064   81600      0    1.70e+00    0    1.19e+00
2006 11 25  2245    54064   81900      0    1.69e+00    0    1.21e+00
2006 11 25  2250    54064   82200      0    1.71e+00    0    1.19e+00
2006 11 25  2255    54064   82500      0    1.72e+00    0    1.22e+00
2006 11 25  2300    54064   82800      0    1.74e+00    0    1.22e+00
2006 11 25  2305    54064   83100      0    1.74e+00    0    1.22e+00
2006 11 25  2310    54064   83400      0    1.71e+00    0    1.22e+00
2006 11 25  2315    54064   83700      0    1.70e+00    0    1.20e+00
2006 11 25  2320    54064   84000      0    1.71e+00    0    1.20e+00
2006 11 25  2325    54064   84300      0    1.73e+00    0    1.22e+00
2006 11 25  2330    54064   84600      0    1.70e+00    0    1.20e+00
2006 11 25  2335    54064   84900      0    1.72e+00    0    1.21e+00
2006 11 25  2340    54064   85200      0    1.73e+00    0    1.21e+00
2006 11 25  2345    54064   85500      0    1.70e+00    0    1.20e+00
2006 11 25  2350    54064   85800      0    1.79e+00    0    1.28e+00
2006 11 25  2355    54064   86100      0    1.74e+00    0    1.22e+00
