:Data_list: 20061110_ace_sis_5m.txt
:Created: 2006 Nov 11 0011 UT
# Prepared by the U.S. Dept. of Commerce, NOAA, Space Environment Center.
# Please send comments and suggestions to SEC.Webmaster@noaa.gov 
# 
# Units: proton flux p/cs2-sec-ster
# Status(S): 0 = nominal data, 1 to 8 = bad data record, 9 = no data
# Missing data values: -1.00e+05
# Source: ACE Satellite - Solar Isotope Spectrometer
#
# 5-minute averaged Real-time Integral Flux of High-energy Solar Protons
# 
#                 Modified Seconds
# UT Date   Time   Julian  of the      ---- Integral Proton Flux ----
# YR MO DA  HHMM     Day     Day       S    > 10 MeV    S    > 30 MeV
#--------------------------------------------------------------------
2006 11 10  0000    54049       0      0    1.73e+00    0    1.18e+00
2006 11 10  0005    54049     300      0    1.71e+00    0    1.18e+00
2006 11 10  0010    54049     600      0    1.74e+00    0    1.20e+00
2006 11 10  0015    54049     900      0    1.74e+00    0    1.20e+00
2006 11 10  0020    54049    1200      0    1.72e+00    0    1.19e+00
2006 11 10  0025    54049    1500      0    1.71e+00    0    1.18e+00
2006 11 10  0030    54049    1800      0    1.74e+00    0    1.19e+00
2006 11 10  0035    54049    2100      0    1.75e+00    0    1.19e+00
2006 11 10  0040    54049    2400      0    1.75e+00    0    1.20e+00
2006 11 10  0045    54049    2700      0    1.75e+00    0    1.19e+00
2006 11 10  0050    54049    3000      0    1.82e+00    0    1.24e+00
2006 11 10  0055    54049    3300      0    1.77e+00    0    1.20e+00
2006 11 10  0100    54049    3600      0    1.77e+00    0    1.21e+00
2006 11 10  0105    54049    3900      0    1.74e+00    0    1.19e+00
2006 11 10  0110    54049    4200      0    1.77e+00    0    1.21e+00
2006 11 10  0115    54049    4500      0    1.75e+00    0    1.17e+00
2006 11 10  0120    54049    4800      0    1.75e+00    0    1.19e+00
2006 11 10  0125    54049    5100      0    1.69e+00    0    1.15e+00
2006 11 10  0130    54049    5400      0    1.74e+00    0    1.18e+00
2006 11 10  0135    54049    5700      0    1.74e+00    0    1.18e+00
2006 11 10  0140    54049    6000      0    1.75e+00    0    1.18e+00
2006 11 10  0145    54049    6300      0    1.77e+00    0    1.20e+00
2006 11 10  0150    54049    6600      0    1.80e+00    0    1.22e+00
2006 11 10  0155    54049    6900      0    1.76e+00    0    1.19e+00
2006 11 10  0200    54049    7200      0    1.76e+00    0    1.20e+00
2006 11 10  0205    54049    7500      0    1.76e+00    0    1.18e+00
2006 11 10  0210    54049    7800      0    1.77e+00    0    1.19e+00
2006 11 10  0215    54049    8100      0    1.77e+00    0    1.18e+00
2006 11 10  0220    54049    8400      0    1.77e+00    0    1.19e+00
2006 11 10  0225    54049    8700      0    1.78e+00    0    1.20e+00
2006 11 10  0230    54049    9000      0    1.77e+00    0    1.18e+00
2006 11 10  0235    54049    9300      0    1.73e+00    0    1.17e+00
2006 11 10  0240    54049    9600      0    1.75e+00    0    1.19e+00
2006 11 10  0245    54049    9900      0    1.78e+00    0    1.20e+00
2006 11 10  0250    54049   10200      0    1.77e+00    0    1.19e+00
2006 11 10  0255    54049   10500      0    1.75e+00    0    1.18e+00
2006 11 10  0300    54049   10800      0    1.78e+00    0    1.20e+00
2006 11 10  0305    54049   11100      0    1.78e+00    0    1.21e+00
2006 11 10  0310    54049   11400      0    1.78e+00    0    1.22e+00
2006 11 10  0315    54049   11700      0    1.75e+00    0    1.18e+00
2006 11 10  0320    54049   12000      0    1.80e+00    0    1.22e+00
2006 11 10  0325    54049   12300      0    1.77e+00    0    1.21e+00
2006 11 10  0330    54049   12600      0    1.77e+00    0    1.19e+00
2006 11 10  0335    54049   12900      0    1.77e+00    0    1.20e+00
2006 11 10  0340    54049   13200      0    1.71e+00    0    1.15e+00
2006 11 10  0345    54049   13500      0    1.74e+00    0    1.16e+00
2006 11 10  0350    54049   13800      0    1.76e+00    0    1.18e+00
2006 11 10  0355    54049   14100      0    1.79e+00    0    1.20e+00
2006 11 10  0400    54049   14400      0    1.74e+00    0    1.19e+00
2006 11 10  0405    54049   14700      0    1.76e+00    0    1.20e+00
2006 11 10  0410    54049   15000      0    1.78e+00    0    1.20e+00
2006 11 10  0415    54049   15300      0    1.81e+00    0    1.20e+00
2006 11 10  0420    54049   15600      0    1.77e+00    0    1.20e+00
2006 11 10  0425    54049   15900      0    1.78e+00    0    1.19e+00
2006 11 10  0430    54049   16200      0    1.76e+00    0    1.19e+00
2006 11 10  0435    54049   16500      0    1.76e+00    0    1.19e+00
2006 11 10  0440    54049   16800      0    1.77e+00    0    1.19e+00
2006 11 10  0445    54049   17100      0    1.77e+00    0    1.18e+00
2006 11 10  0450    54049   17400      0    1.74e+00    0    1.15e+00
2006 11 10  0455    54049   17700      0    1.77e+00    0    1.20e+00
2006 11 10  0500    54049   18000      0    1.78e+00    0    1.19e+00
2006 11 10  0505    54049   18300      0    1.80e+00    0    1.20e+00
2006 11 10  0510    54049   18600      0    1.76e+00    0    1.19e+00
2006 11 10  0515    54049   18900      0    1.74e+00    0    1.17e+00
2006 11 10  0520    54049   19200      0    1.79e+00    0    1.21e+00
2006 11 10  0525    54049   19500      0    1.77e+00    0    1.19e+00
2006 11 10  0530    54049   19800      0    1.79e+00    0    1.21e+00
2006 11 10  0535    54049   20100      0    1.77e+00    0    1.18e+00
2006 11 10  0540    54049   20400      0    1.75e+00    0    1.19e+00
2006 11 10  0545    54049   20700      0    1.82e+00    0    1.22e+00
2006 11 10  0550    54049   21000      0    1.77e+00    0    1.19e+00
2006 11 10  0555    54049   21300      0    1.82e+00    0    1.20e+00
2006 11 10  0600    54049   21600      0    1.73e+00    0    1.16e+00
2006 11 10  0605    54049   21900      0    1.77e+00    0    1.20e+00
2006 11 10  0610    54049   22200      0    1.78e+00    0    1.20e+00
2006 11 10  0615    54049   22500      0    1.79e+00    0    1.22e+00
2006 11 10  0620    54049   22800      0    1.76e+00    0    1.18e+00
2006 11 10  0625    54049   23100      0    1.77e+00    0    1.20e+00
2006 11 10  0630    54049   23400      0    1.76e+00    0    1.19e+00
2006 11 10  0635    54049   23700      0    1.78e+00    0    1.19e+00
2006 11 10  0640    54049   24000      0    1.77e+00    0    1.19e+00
2006 11 10  0645    54049   24300      0    1.75e+00    0    1.17e+00
2006 11 10  0650    54049   24600      0    1.74e+00    0    1.21e+00
2006 11 10  0655    54049   24900      0    1.81e+00    0    1.22e+00
2006 11 10  0700    54049   25200      0    1.78e+00    0    1.20e+00
2006 11 10  0705    54049   25500      0    1.78e+00    0    1.22e+00
2006 11 10  0710    54049   25800      0    1.76e+00    0    1.18e+00
2006 11 10  0715    54049   26100      0    1.74e+00    0    1.17e+00
2006 11 10  0720    54049   26400      0    1.77e+00    0    1.18e+00
2006 11 10  0725    54049   26700      0    1.79e+00    0    1.20e+00
2006 11 10  0730    54049   27000      0    1.80e+00    0    1.21e+00
2006 11 10  0735    54049   27300      0    1.76e+00    0    1.19e+00
2006 11 10  0740    54049   27600      0    1.80e+00    0    1.20e+00
2006 11 10  0745    54049   27900      0    1.77e+00    0    1.19e+00
2006 11 10  0750    54049   28200      0    1.78e+00    0    1.20e+00
2006 11 10  0755    54049   28500      0    1.76e+00    0    1.18e+00
2006 11 10  0800    54049   28800      0    1.75e+00    0    1.17e+00
2006 11 10  0805    54049   29100      0    1.77e+00    0    1.19e+00
2006 11 10  0810    54049   29400      0    1.77e+00    0    1.20e+00
2006 11 10  0815    54049   29700      0    1.79e+00    0    1.20e+00
2006 11 10  0820    54049   30000      0    1.78e+00    0    1.20e+00
2006 11 10  0825    54049   30300      0    1.75e+00    0    1.18e+00
2006 11 10  0830    54049   30600      0    1.74e+00    0    1.17e+00
2006 11 10  0835    54049   30900      0    1.82e+00    0    1.22e+00
2006 11 10  0840    54049   31200      0    1.80e+00    0    1.21e+00
2006 11 10  0845    54049   31500      0    1.77e+00    0    1.20e+00
2006 11 10  0850    54049   31800      0    1.80e+00    0    1.23e+00
2006 11 10  0855    54049   32100      0    1.75e+00    0    1.18e+00
2006 11 10  0900    54049   32400      0    1.84e+00    0    1.24e+00
2006 11 10  0905    54049   32700      0    1.78e+00    0    1.21e+00
2006 11 10  0910    54049   33000      0    1.75e+00    0    1.18e+00
2006 11 10  0915    54049   33300      0    1.76e+00    0    1.19e+00
2006 11 10  0920    54049   33600      0    1.78e+00    0    1.20e+00
2006 11 10  0925    54049   33900      0    1.78e+00    0    1.20e+00
2006 11 10  0930    54049   34200      0    1.78e+00    0    1.20e+00
2006 11 10  0935    54049   34500      0    1.74e+00    0    1.18e+00
2006 11 10  0940    54049   34800      0    1.74e+00    0    1.17e+00
2006 11 10  0945    54049   35100      0    1.74e+00    0    1.17e+00
2006 11 10  0950    54049   35400      0    1.77e+00    0    1.20e+00
2006 11 10  0955    54049   35700      0    1.79e+00    0    1.21e+00
2006 11 10  1000    54049   36000      0    1.77e+00    0    1.21e+00
2006 11 10  1005    54049   36300      0    1.76e+00    0    1.19e+00
2006 11 10  1010    54049   36600      0    1.80e+00    0    1.21e+00
2006 11 10  1015    54049   36900      0    1.79e+00    0    1.20e+00
2006 11 10  1020    54049   37200      0    1.71e+00    0    1.14e+00
2006 11 10  1025    54049   37500      0    1.79e+00    0    1.20e+00
2006 11 10  1030    54049   37800      0    1.75e+00    0    1.18e+00
2006 11 10  1035    54049   38100      0    1.75e+00    0    1.18e+00
2006 11 10  1040    54049   38400      0    1.75e+00    0    1.18e+00
2006 11 10  1045    54049   38700      0    1.74e+00    0    1.17e+00
2006 11 10  1050    54049   39000      0    1.75e+00    0    1.17e+00
2006 11 10  1055    54049   39300      0    1.72e+00    0    1.15e+00
2006 11 10  1100    54049   39600      0    1.76e+00    0    1.19e+00
2006 11 10  1105    54049   39900      0    1.81e+00    0    1.24e+00
2006 11 10  1110    54049   40200      0    1.74e+00    0    1.16e+00
2006 11 10  1115    54049   40500      0    1.76e+00    0    1.19e+00
2006 11 10  1120    54049   40800      0    1.77e+00    0    1.20e+00
2006 11 10  1125    54049   41100      0    1.76e+00    0    1.19e+00
2006 11 10  1130    54049   41400      0    1.79e+00    0    1.22e+00
2006 11 10  1135    54049   41700      0    1.77e+00    0    1.20e+00
2006 11 10  1140    54049   42000      0    1.76e+00    0    1.20e+00
2006 11 10  1145    54049   42300      0    1.74e+00    0    1.18e+00
2006 11 10  1150    54049   42600      0    1.69e+00    0    1.16e+00
2006 11 10  1155    54049   42900      0    1.79e+00    0    1.21e+00
2006 11 10  1200    54049   43200      0    1.73e+00    0    1.16e+00
2006 11 10  1205    54049   43500      0    1.75e+00    0    1.17e+00
2006 11 10  1210    54049   43800      0    1.75e+00    0    1.19e+00
2006 11 10  1215    54049   44100      0    1.74e+00    0    1.17e+00
2006 11 10  1220    54049   44400      0    1.73e+00    0    1.16e+00
2006 11 10  1225    54049   44700      0    1.75e+00    0    1.19e+00
2006 11 10  1230    54049   45000      0    1.76e+00    0    1.19e+00
2006 11 10  1235    54049   45300      0    1.76e+00    0    1.19e+00
2006 11 10  1240    54049   45600      0    1.72e+00    0    1.16e+00
2006 11 10  1245    54049   45900      0    1.73e+00    0    1.17e+00
2006 11 10  1250    54049   46200      0    1.71e+00    0    1.16e+00
2006 11 10  1255    54049   46500      0    1.78e+00    0    1.21e+00
2006 11 10  1300    54049   46800      0    1.75e+00    0    1.18e+00
2006 11 10  1305    54049   47100      0    1.76e+00    0    1.18e+00
2006 11 10  1310    54049   47400      0    1.77e+00    0    1.18e+00
2006 11 10  1315    54049   47700      0    1.75e+00    0    1.18e+00
2006 11 10  1320    54049   48000      0    1.76e+00    0    1.19e+00
2006 11 10  1325    54049   48300      0    1.74e+00    0    1.17e+00
2006 11 10  1330    54049   48600      0    1.76e+00    0    1.20e+00
2006 11 10  1335    54049   48900      0    1.77e+00    0    1.19e+00
2006 11 10  1340    54049   49200      0    1.79e+00    0    1.21e+00
2006 11 10  1345    54049   49500      0    1.77e+00    0    1.21e+00
2006 11 10  1350    54049   49800      0    1.76e+00    0    1.20e+00
2006 11 10  1355    54049   50100      0    1.78e+00    0    1.22e+00
2006 11 10  1400    54049   50400      0    1.72e+00    0    1.17e+00
2006 11 10  1405    54049   50700      0    1.76e+00    0    1.19e+00
2006 11 10  1410    54049   51000      0    1.77e+00    0    1.21e+00
2006 11 10  1415    54049   51300      0    1.77e+00    0    1.20e+00
2006 11 10  1420    54049   51600      0    1.76e+00    0    1.19e+00
2006 11 10  1425    54049   51900      0    1.76e+00    0    1.21e+00
2006 11 10  1430    54049   52200      0    1.80e+00    0    1.22e+00
2006 11 10  1435    54049   52500      0    1.76e+00    0    1.21e+00
2006 11 10  1440    54049   52800      0    1.74e+00    0    1.17e+00
2006 11 10  1445    54049   53100      0    1.76e+00    0    1.20e+00
2006 11 10  1450    54049   53400      0    1.74e+00    0    1.18e+00
2006 11 10  1455    54049   53700      0    1.79e+00    0    1.21e+00
2006 11 10  1500    54049   54000      0    1.75e+00    0    1.18e+00
2006 11 10  1505    54049   54300      0    1.73e+00    0    1.17e+00
2006 11 10  1510    54049   54600      0    1.76e+00    0    1.20e+00
2006 11 10  1515    54049   54900      0    1.76e+00    0    1.19e+00
2006 11 10  1520    54049   55200      0    1.77e+00    0    1.19e+00
2006 11 10  1525    54049   55500      0    1.72e+00    0    1.17e+00
2006 11 10  1530    54049   55800      0    1.76e+00    0    1.19e+00
2006 11 10  1535    54049   56100      0    1.78e+00    0    1.22e+00
2006 11 10  1540    54049   56400      0    1.76e+00    0    1.20e+00
2006 11 10  1545    54049   56700      0    1.77e+00    0    1.21e+00
2006 11 10  1550    54049   57000      0    1.73e+00    0    1.18e+00
2006 11 10  1555    54049   57300      0    1.73e+00    0    1.18e+00
2006 11 10  1600    54049   57600      0    1.74e+00    0    1.19e+00
2006 11 10  1605    54049   57900      0    1.74e+00    0    1.18e+00
2006 11 10  1610    54049   58200      0    1.71e+00    0    1.15e+00
2006 11 10  1615    54049   58500      0    1.79e+00    0    1.21e+00
2006 11 10  1620    54049   58800      0    1.74e+00    0    1.18e+00
2006 11 10  1625    54049   59100      0    1.77e+00    0    1.22e+00
2006 11 10  1630    54049   59400      0    1.75e+00    0    1.19e+00
2006 11 10  1635    54049   59700      0    1.74e+00    0    1.18e+00
2006 11 10  1640    54049   60000      0    1.76e+00    0    1.20e+00
2006 11 10  1645    54049   60300      0    1.75e+00    0    1.19e+00
2006 11 10  1650    54049   60600      0    1.79e+00    0    1.21e+00
2006 11 10  1655    54049   60900      0    1.77e+00    0    1.22e+00
2006 11 10  1700    54049   61200      0    1.73e+00    0    1.18e+00
2006 11 10  1705    54049   61500      0    1.75e+00    0    1.19e+00
2006 11 10  1710    54049   61800      0    1.73e+00    0    1.18e+00
2006 11 10  1715    54049   62100      0    1.74e+00    0    1.18e+00
2006 11 10  1720    54049   62400      0    1.73e+00    0    1.18e+00
2006 11 10  1725    54049   62700      0    1.82e+00    0    1.24e+00
2006 11 10  1730    54049   63000      0    1.74e+00    0    1.18e+00
2006 11 10  1735    54049   63300      0    1.75e+00    0    1.19e+00
2006 11 10  1740    54049   63600      0    1.74e+00    0    1.20e+00
2006 11 10  1745    54049   63900      0    1.77e+00    0    1.22e+00
2006 11 10  1750    54049   64200      0    1.74e+00    0    1.18e+00
2006 11 10  1755    54049   64500      0    1.71e+00    0    1.17e+00
2006 11 10  1800    54049   64800      0    1.74e+00    0    1.18e+00
2006 11 10  1805    54049   65100      0    1.74e+00    0    1.18e+00
2006 11 10  1810    54049   65400      0    1.76e+00    0    1.20e+00
2006 11 10  1815    54049   65700      0    1.75e+00    0    1.17e+00
2006 11 10  1820    54049   66000      0    1.76e+00    0    1.19e+00
2006 11 10  1825    54049   66300      0    1.74e+00    0    1.18e+00
2006 11 10  1830    54049   66600      0    1.72e+00    0    1.17e+00
2006 11 10  1835    54049   66900      0    1.73e+00    0    1.17e+00
2006 11 10  1840    54049   67200      0    1.73e+00    0    1.19e+00
2006 11 10  1845    54049   67500      0    1.71e+00    0    1.17e+00
2006 11 10  1850    54049   67800      0    1.71e+00    0    1.16e+00
2006 11 10  1855    54049   68100      0    1.70e+00    0    1.15e+00
2006 11 10  1900    54049   68400      0    1.70e+00    0    1.14e+00
2006 11 10  1905    54049   68700      0    1.70e+00    0    1.17e+00
2006 11 10  1910    54049   69000      0    1.74e+00    0    1.18e+00
2006 11 10  1915    54049   69300      0    1.70e+00    0    1.15e+00
2006 11 10  1920    54049   69600      0    1.72e+00    0    1.17e+00
2006 11 10  1925    54049   69900      0    1.71e+00    0    1.16e+00
2006 11 10  1930    54049   70200      0    1.75e+00    0    1.19e+00
2006 11 10  1935    54049   70500      0    1.79e+00    0    1.23e+00
2006 11 10  1940    54049   70800      0    1.76e+00    0    1.21e+00
2006 11 10  1945    54049   71100      0    1.75e+00    0    1.20e+00
2006 11 10  1950    54049   71400      0    1.75e+00    0    1.20e+00
2006 11 10  1955    54049   71700      0    1.73e+00    0    1.17e+00
2006 11 10  2000    54049   72000      0    1.73e+00    0    1.18e+00
2006 11 10  2005    54049   72300      0    1.73e+00    0    1.19e+00
2006 11 10  2010    54049   72600      0    1.70e+00    0    1.16e+00
2006 11 10  2015    54049   72900      0    1.71e+00    0    1.15e+00
2006 11 10  2020    54049   73200      0    1.76e+00    0    1.20e+00
2006 11 10  2025    54049   73500      0    1.72e+00    0    1.18e+00
2006 11 10  2030    54049   73800      0    1.71e+00    0    1.18e+00
2006 11 10  2035    54049   74100      0    1.71e+00    0    1.17e+00
2006 11 10  2040    54049   74400      0    1.67e+00    0    1.13e+00
2006 11 10  2045    54049   74700      0    1.70e+00    0    1.16e+00
2006 11 10  2050    54049   75000      0    1.69e+00    0    1.16e+00
2006 11 10  2055    54049   75300      0    1.69e+00    0    1.16e+00
2006 11 10  2100    54049   75600      0    1.71e+00    0    1.16e+00
2006 11 10  2105    54049   75900      0    1.69e+00    0    1.16e+00
2006 11 10  2110    54049   76200      0    1.70e+00    0    1.16e+00
2006 11 10  2115    54049   76500      0    1.73e+00    0    1.19e+00
2006 11 10  2120    54049   76800      0    1.70e+00    0    1.17e+00
2006 11 10  2125    54049   77100      0    1.66e+00    0    1.14e+00
2006 11 10  2130    54049   77400      0    1.72e+00    0    1.18e+00
2006 11 10  2135    54049   77700      0    1.69e+00    0    1.16e+00
2006 11 10  2140    54049   78000      0    1.71e+00    0    1.17e+00
2006 11 10  2145    54049   78300      0    1.58e+00    0    1.08e+00
2006 11 10  2150    54049   78600      0    1.71e+00    0    1.18e+00
2006 11 10  2155    54049   78900      0    1.69e+00    0    1.16e+00
2006 11 10  2200    54049   79200      0    1.71e+00    0    1.16e+00
2006 11 10  2205    54049   79500      0    1.71e+00    0    1.18e+00
2006 11 10  2210    54049   79800      0    1.74e+00    0    1.19e+00
2006 11 10  2215    54049   80100      0    1.67e+00    0    1.15e+00
2006 11 10  2220    54049   80400      0    1.68e+00    0    1.15e+00
2006 11 10  2225    54049   80700      0    1.67e+00    0    1.14e+00
2006 11 10  2230    54049   81000      0    1.70e+00    0    1.16e+00
2006 11 10  2235    54049   81300      0    1.69e+00    0    1.16e+00
2006 11 10  2240    54049   81600      0    1.68e+00    0    1.15e+00
2006 11 10  2245    54049   81900      0    1.69e+00    0    1.15e+00
2006 11 10  2250    54049   82200      0    1.67e+00    0    1.15e+00
2006 11 10  2255    54049   82500      0    1.69e+00    0    1.14e+00
2006 11 10  2300    54049   82800      0    1.70e+00    0    1.18e+00
2006 11 10  2305    54049   83100      0    1.69e+00    0    1.14e+00
2006 11 10  2310    54049   83400      0    1.70e+00    0    1.17e+00
2006 11 10  2315    54049   83700      0    1.72e+00    0    1.17e+00
2006 11 10  2320    54049   84000      0    1.71e+00    0    1.18e+00
2006 11 10  2325    54049   84300      0    1.73e+00    0    1.18e+00
2006 11 10  2330    54049   84600      0    1.68e+00    0    1.15e+00
2006 11 10  2335    54049   84900      0    1.69e+00    0    1.16e+00
2006 11 10  2340    54049   85200      0    1.61e+00    0    1.10e+00
2006 11 10  2345    54049   85500      0    1.70e+00    0    1.16e+00
2006 11 10  2350    54049   85800      0    1.73e+00    0    1.17e+00
2006 11 10  2355    54049   86100      0    1.74e+00    0    1.20e+00
