:Data_list: 20060403_ace_sis_5m.txt
:Created: 2006 Apr 04 0011 UT
# Prepared by the U.S. Dept. of Commerce, NOAA, Space Environment Center.
# Please send comments and suggestions to SEC.Webmaster@noaa.gov 
# 
# Units: proton flux p/cs2-sec-ster
# Status(S): 0 = nominal data, 1 to 8 = bad data record, 9 = no data
# Missing data values: -1.00e+05
# Source: ACE Satellite - Solar Isotope Spectrometer
#
# 5-minute averaged Real-time Integral Flux of High-energy Solar Protons
# 
#                 Modified Seconds
# UT Date   Time   Julian  of the      ---- Integral Proton Flux ----
# YR MO DA  HHMM     Day     Day       S    > 10 MeV    S    > 30 MeV
#--------------------------------------------------------------------
2006 04 03  0000    53828       0      0    1.59e+00    0    1.13e+00
2006 04 03  0005    53828     300      0    1.61e+00    0    1.13e+00
2006 04 03  0010    53828     600      0    1.60e+00    0    1.12e+00
2006 04 03  0015    53828     900      0    1.59e+00    0    1.12e+00
2006 04 03  0020    53828    1200      0    1.53e+00    0    1.07e+00
2006 04 03  0025    53828    1500      0    1.60e+00    0    1.11e+00
2006 04 03  0030    53828    1800      0    1.60e+00    0    1.13e+00
2006 04 03  0035    53828    2100      0    1.60e+00    0    1.12e+00
2006 04 03  0040    53828    2400      0    1.58e+00    0    1.10e+00
2006 04 03  0045    53828    2700      0    1.56e+00    0    1.09e+00
2006 04 03  0050    53828    3000      0    1.59e+00    0    1.12e+00
2006 04 03  0055    53828    3300      0    1.57e+00    0    1.11e+00
2006 04 03  0100    53828    3600      0    1.59e+00    0    1.11e+00
2006 04 03  0105    53828    3900      0    1.59e+00    0    1.11e+00
2006 04 03  0110    53828    4200      0    1.58e+00    0    1.10e+00
2006 04 03  0115    53828    4500      0    1.61e+00    0    1.13e+00
2006 04 03  0120    53828    4800      0    1.58e+00    0    1.10e+00
2006 04 03  0125    53828    5100      0    1.59e+00    0    1.12e+00
2006 04 03  0130    53828    5400      0    1.62e+00    0    1.14e+00
2006 04 03  0135    53828    5700      0    1.55e+00    0    1.09e+00
2006 04 03  0140    53828    6000      0    1.63e+00    0    1.15e+00
2006 04 03  0145    53828    6300      0    1.60e+00    0    1.12e+00
2006 04 03  0150    53828    6600      0    1.56e+00    0    1.09e+00
2006 04 03  0155    53828    6900      0    1.56e+00    0    1.10e+00
2006 04 03  0200    53828    7200      0    1.58e+00    0    1.11e+00
2006 04 03  0205    53828    7500      0    1.60e+00    0    1.12e+00
2006 04 03  0210    53828    7800      0    1.60e+00    0    1.11e+00
2006 04 03  0215    53828    8100      0    1.58e+00    0    1.11e+00
2006 04 03  0220    53828    8400      0    1.62e+00    0    1.14e+00
2006 04 03  0225    53828    8700      0    1.60e+00    0    1.10e+00
2006 04 03  0230    53828    9000      0    1.57e+00    0    1.11e+00
2006 04 03  0235    53828    9300      0    1.60e+00    0    1.12e+00
2006 04 03  0240    53828    9600      0    1.58e+00    0    1.12e+00
2006 04 03  0245    53828    9900      0    1.60e+00    0    1.12e+00
2006 04 03  0250    53828   10200      0    1.60e+00    0    1.12e+00
2006 04 03  0255    53828   10500      0    1.58e+00    0    1.10e+00
2006 04 03  0300    53828   10800      0    1.59e+00    0    1.12e+00
2006 04 03  0305    53828   11100      0    1.61e+00    0    1.12e+00
2006 04 03  0310    53828   11400      0    1.58e+00    0    1.11e+00
2006 04 03  0315    53828   11700      0    1.56e+00    0    1.09e+00
2006 04 03  0320    53828   12000      0    1.57e+00    0    1.11e+00
2006 04 03  0325    53828   12300      0    1.54e+00    0    1.09e+00
2006 04 03  0330    53828   12600      0    1.58e+00    0    1.10e+00
2006 04 03  0335    53828   12900      0    1.56e+00    0    1.09e+00
2006 04 03  0340    53828   13200      0    1.59e+00    0    1.12e+00
2006 04 03  0345    53828   13500      0    1.65e+00    0    1.16e+00
2006 04 03  0350    53828   13800      0    1.61e+00    0    1.13e+00
2006 04 03  0355    53828   14100      0    1.57e+00    0    1.10e+00
2006 04 03  0400    53828   14400      0    1.59e+00    0    1.12e+00
2006 04 03  0405    53828   14700      0    1.61e+00    0    1.13e+00
2006 04 03  0410    53828   15000      0    1.56e+00    0    1.10e+00
2006 04 03  0415    53828   15300      0    1.59e+00    0    1.11e+00
2006 04 03  0420    53828   15600      0    1.63e+00    0    1.14e+00
2006 04 03  0425    53828   15900      0    1.62e+00    0    1.13e+00
2006 04 03  0430    53828   16200      0    1.56e+00    0    1.09e+00
2006 04 03  0435    53828   16500      0    1.56e+00    0    1.11e+00
2006 04 03  0440    53828   16800      0    1.58e+00    0    1.11e+00
2006 04 03  0445    53828   17100      0    1.57e+00    0    1.10e+00
2006 04 03  0450    53828   17400      0    1.56e+00    0    1.09e+00
2006 04 03  0455    53828   17700      0    1.61e+00    0    1.12e+00
2006 04 03  0500    53828   18000      0    1.60e+00    0    1.12e+00
2006 04 03  0505    53828   18300      0    1.58e+00    0    1.10e+00
2006 04 03  0510    53828   18600      0    1.58e+00    0    1.10e+00
2006 04 03  0515    53828   18900      0    1.56e+00    0    1.09e+00
2006 04 03  0520    53828   19200      0    1.56e+00    0    1.09e+00
2006 04 03  0525    53828   19500      0    1.58e+00    0    1.13e+00
2006 04 03  0530    53828   19800      0    1.59e+00    0    1.11e+00
2006 04 03  0535    53828   20100      0    1.59e+00    0    1.11e+00
2006 04 03  0540    53828   20400      0    1.57e+00    0    1.09e+00
2006 04 03  0545    53828   20700      0    1.61e+00    0    1.13e+00
2006 04 03  0550    53828   21000      0    1.62e+00    0    1.14e+00
2006 04 03  0555    53828   21300      0    1.58e+00    0    1.12e+00
2006 04 03  0600    53828   21600      0    1.59e+00    0    1.11e+00
2006 04 03  0605    53828   21900      0    1.55e+00    0    1.09e+00
2006 04 03  0610    53828   22200      0    1.58e+00    0    1.10e+00
2006 04 03  0615    53828   22500      0    1.60e+00    0    1.13e+00
2006 04 03  0620    53828   22800      0    1.60e+00    0    1.13e+00
2006 04 03  0625    53828   23100      0    1.57e+00    0    1.11e+00
2006 04 03  0630    53828   23400      0    1.59e+00    0    1.11e+00
2006 04 03  0635    53828   23700      0    1.59e+00    0    1.11e+00
2006 04 03  0640    53828   24000      0    1.55e+00    0    1.09e+00
2006 04 03  0645    53828   24300      0    1.59e+00    0    1.12e+00
2006 04 03  0650    53828   24600      0    1.61e+00    0    1.13e+00
2006 04 03  0655    53828   24900      0    1.64e+00    0    1.17e+00
2006 04 03  0700    53828   25200      0    1.62e+00    0    1.13e+00
2006 04 03  0705    53828   25500      0    1.60e+00    0    1.12e+00
2006 04 03  0710    53828   25800      0    1.60e+00    0    1.11e+00
2006 04 03  0715    53828   26100      0    1.59e+00    0    1.13e+00
2006 04 03  0720    53828   26400      0    1.62e+00    0    1.13e+00
2006 04 03  0725    53828   26700      0    1.62e+00    0    1.14e+00
2006 04 03  0730    53828   27000      0    1.58e+00    0    1.10e+00
2006 04 03  0735    53828   27300      0    1.61e+00    0    1.14e+00
2006 04 03  0740    53828   27600      0    1.63e+00    0    1.14e+00
2006 04 03  0745    53828   27900      0    1.60e+00    0    1.13e+00
2006 04 03  0750    53828   28200      0    1.57e+00    0    1.12e+00
2006 04 03  0755    53828   28500      0    1.60e+00    0    1.13e+00
2006 04 03  0800    53828   28800      0    1.58e+00    0    1.11e+00
2006 04 03  0805    53828   29100      0    1.62e+00    0    1.15e+00
2006 04 03  0810    53828   29400      0    1.61e+00    0    1.13e+00
2006 04 03  0815    53828   29700      0    1.58e+00    0    1.10e+00
2006 04 03  0820    53828   30000      0    1.57e+00    0    1.11e+00
2006 04 03  0825    53828   30300      0    1.61e+00    0    1.13e+00
2006 04 03  0830    53828   30600      0    1.58e+00    0    1.11e+00
2006 04 03  0835    53828   30900      0    1.58e+00    0    1.11e+00
2006 04 03  0840    53828   31200      0    1.59e+00    0    1.12e+00
2006 04 03  0845    53828   31500      0    1.60e+00    0    1.11e+00
2006 04 03  0850    53828   31800      0    1.59e+00    0    1.10e+00
2006 04 03  0855    53828   32100      0    1.61e+00    0    1.13e+00
2006 04 03  0900    53828   32400      0    1.59e+00    0    1.11e+00
2006 04 03  0905    53828   32700      0    1.55e+00    0    1.09e+00
2006 04 03  0910    53828   33000      0    1.54e+00    0    1.07e+00
2006 04 03  0915    53828   33300      0    1.58e+00    0    1.11e+00
2006 04 03  0920    53828   33600      0    1.61e+00    0    1.13e+00
2006 04 03  0925    53828   33900      0    1.50e+00    0    1.05e+00
2006 04 03  0930    53828   34200      0    1.56e+00    0    1.11e+00
2006 04 03  0935    53828   34500      0    1.56e+00    0    1.10e+00
2006 04 03  0940    53828   34800      0    1.59e+00    0    1.12e+00
2006 04 03  0945    53828   35100      0    1.59e+00    0    1.12e+00
2006 04 03  0950    53828   35400      0    1.57e+00    0    1.09e+00
2006 04 03  0955    53828   35700      0    1.60e+00    0    1.12e+00
2006 04 03  1000    53828   36000      0    1.57e+00    0    1.11e+00
2006 04 03  1005    53828   36300      0    1.56e+00    0    1.09e+00
2006 04 03  1010    53828   36600      0    1.55e+00    0    1.09e+00
2006 04 03  1015    53828   36900      0    1.59e+00    0    1.12e+00
2006 04 03  1020    53828   37200      0    1.59e+00    0    1.12e+00
2006 04 03  1025    53828   37500      0    1.61e+00    0    1.14e+00
2006 04 03  1030    53828   37800      0    1.58e+00    0    1.13e+00
2006 04 03  1035    53828   38100      0    1.61e+00    0    1.13e+00
2006 04 03  1040    53828   38400      0    1.58e+00    0    1.10e+00
2006 04 03  1045    53828   38700      0    1.60e+00    0    1.13e+00
2006 04 03  1050    53828   39000      0    1.58e+00    0    1.11e+00
2006 04 03  1055    53828   39300      0    1.62e+00    0    1.14e+00
2006 04 03  1100    53828   39600      0    1.61e+00    0    1.12e+00
2006 04 03  1105    53828   39900      0    1.59e+00    0    1.11e+00
2006 04 03  1110    53828   40200      0    1.57e+00    0    1.10e+00
2006 04 03  1115    53828   40500      0    1.59e+00    0    1.12e+00
2006 04 03  1120    53828   40800      0    1.59e+00    0    1.10e+00
2006 04 03  1125    53828   41100      0    1.57e+00    0    1.10e+00
2006 04 03  1130    53828   41400      0    1.58e+00    0    1.11e+00
2006 04 03  1135    53828   41700      0    1.58e+00    0    1.10e+00
2006 04 03  1140    53828   42000      0    1.54e+00    0    1.07e+00
2006 04 03  1145    53828   42300      0    1.60e+00    0    1.13e+00
2006 04 03  1150    53828   42600      0    1.58e+00    0    1.11e+00
2006 04 03  1155    53828   42900      0    1.58e+00    0    1.11e+00
2006 04 03  1200    53828   43200      0    1.60e+00    0    1.11e+00
2006 04 03  1205    53828   43500      0    1.56e+00    0    1.09e+00
2006 04 03  1210    53828   43800      0    1.58e+00    0    1.11e+00
2006 04 03  1215    53828   44100      0    1.56e+00    0    1.10e+00
2006 04 03  1220    53828   44400      0    1.59e+00    0    1.12e+00
2006 04 03  1225    53828   44700      0    1.59e+00    0    1.12e+00
2006 04 03  1230    53828   45000      0    1.57e+00    0    1.10e+00
2006 04 03  1235    53828   45300      0    1.57e+00    0    1.11e+00
2006 04 03  1240    53828   45600      0    1.60e+00    0    1.12e+00
2006 04 03  1245    53828   45900      0    1.61e+00    0    1.13e+00
2006 04 03  1250    53828   46200      0    1.58e+00    0    1.10e+00
2006 04 03  1255    53828   46500      0    1.60e+00    0    1.12e+00
2006 04 03  1300    53828   46800      0    1.57e+00    0    1.10e+00
2006 04 03  1305    53828   47100      0    1.60e+00    0    1.12e+00
2006 04 03  1310    53828   47400      0    1.57e+00    0    1.09e+00
2006 04 03  1315    53828   47700      0    1.60e+00    0    1.13e+00
2006 04 03  1320    53828   48000      0    1.59e+00    0    1.12e+00
2006 04 03  1325    53828   48300      0    1.60e+00    0    1.12e+00
2006 04 03  1330    53828   48600      0    1.61e+00    0    1.14e+00
2006 04 03  1335    53828   48900      0    1.58e+00    0    1.11e+00
2006 04 03  1340    53828   49200      0    1.62e+00    0    1.14e+00
2006 04 03  1345    53828   49500      0    1.60e+00    0    1.11e+00
2006 04 03  1350    53828   49800      0    1.59e+00    0    1.12e+00
2006 04 03  1355    53828   50100      0    1.60e+00    0    1.11e+00
2006 04 03  1400    53828   50400      0    1.60e+00    0    1.12e+00
2006 04 03  1405    53828   50700      0    1.62e+00    0    1.13e+00
2006 04 03  1410    53828   51000      0    1.57e+00    0    1.10e+00
2006 04 03  1415    53828   51300      0    1.60e+00    0    1.12e+00
2006 04 03  1420    53828   51600      0    1.61e+00    0    1.12e+00
2006 04 03  1425    53828   51900      0    1.63e+00    0    1.15e+00
2006 04 03  1430    53828   52200      0    1.62e+00    0    1.15e+00
2006 04 03  1435    53828   52500      0    1.56e+00    0    1.10e+00
2006 04 03  1440    53828   52800      0    1.59e+00    0    1.10e+00
2006 04 03  1445    53828   53100      0    1.56e+00    0    1.09e+00
2006 04 03  1450    53828   53400      0    1.58e+00    0    1.10e+00
2006 04 03  1455    53828   53700      0    1.59e+00    0    1.12e+00
2006 04 03  1500    53828   54000      0    1.57e+00    0    1.11e+00
2006 04 03  1505    53828   54300      0    1.60e+00    0    1.12e+00
2006 04 03  1510    53828   54600      0    1.59e+00    0    1.11e+00
2006 04 03  1515    53828   54900      0    1.56e+00    0    1.09e+00
2006 04 03  1520    53828   55200      0    1.60e+00    0    1.12e+00
2006 04 03  1525    53828   55500      0    1.58e+00    0    1.12e+00
2006 04 03  1530    53828   55800      0    1.60e+00    0    1.12e+00
2006 04 03  1535    53828   56100      0    1.59e+00    0    1.11e+00
2006 04 03  1540    53828   56400      0    1.59e+00    0    1.12e+00
2006 04 03  1545    53828   56700      0    1.65e+00    0    1.15e+00
2006 04 03  1550    53828   57000      0    1.62e+00    0    1.13e+00
2006 04 03  1555    53828   57300      0    1.60e+00    0    1.11e+00
2006 04 03  1600    53828   57600      0    1.61e+00    0    1.14e+00
2006 04 03  1605    53828   57900      0    1.60e+00    0    1.13e+00
2006 04 03  1610    53828   58200      0    1.61e+00    0    1.13e+00
2006 04 03  1615    53828   58500      0    1.59e+00    0    1.11e+00
2006 04 03  1620    53828   58800      0    1.56e+00    0    1.10e+00
2006 04 03  1625    53828   59100      0    1.59e+00    0    1.12e+00
2006 04 03  1630    53828   59400      0    1.60e+00    0    1.13e+00
2006 04 03  1635    53828   59700      0    1.58e+00    0    1.11e+00
2006 04 03  1640    53828   60000      0    1.59e+00    0    1.11e+00
2006 04 03  1645    53828   60300      0    1.58e+00    0    1.11e+00
2006 04 03  1650    53828   60600      0    1.57e+00    0    1.10e+00
2006 04 03  1655    53828   60900      0    1.61e+00    0    1.13e+00
2006 04 03  1700    53828   61200      0    1.57e+00    0    1.10e+00
2006 04 03  1705    53828   61500      0    1.56e+00    0    1.11e+00
2006 04 03  1710    53828   61800      0    1.60e+00    0    1.12e+00
2006 04 03  1715    53828   62100      0    1.59e+00    0    1.12e+00
2006 04 03  1720    53828   62400      0    1.61e+00    0    1.13e+00
2006 04 03  1725    53828   62700      0    1.59e+00    0    1.12e+00
2006 04 03  1730    53828   63000      0    1.56e+00    0    1.09e+00
2006 04 03  1735    53828   63300      0    1.62e+00    0    1.15e+00
2006 04 03  1740    53828   63600      0    1.58e+00    0    1.12e+00
2006 04 03  1745    53828   63900      0    1.62e+00    0    1.13e+00
2006 04 03  1750    53828   64200      0    1.59e+00    0    1.10e+00
2006 04 03  1755    53828   64500      0    1.61e+00    0    1.13e+00
2006 04 03  1800    53828   64800      0    1.57e+00    0    1.10e+00
2006 04 03  1805    53828   65100      0    1.57e+00    0    1.09e+00
2006 04 03  1810    53828   65400      0    1.58e+00    0    1.10e+00
2006 04 03  1815    53828   65700      0    1.56e+00    0    1.09e+00
2006 04 03  1820    53828   66000      0    1.59e+00    0    1.12e+00
2006 04 03  1825    53828   66300      0    1.58e+00    0    1.11e+00
2006 04 03  1830    53828   66600      0    1.55e+00    0    1.08e+00
2006 04 03  1835    53828   66900      0    1.56e+00    0    1.10e+00
2006 04 03  1840    53828   67200      0    1.57e+00    0    1.11e+00
2006 04 03  1845    53828   67500      0    1.58e+00    0    1.10e+00
2006 04 03  1850    53828   67800      0    1.63e+00    0    1.15e+00
2006 04 03  1855    53828   68100      0    1.61e+00    0    1.12e+00
2006 04 03  1900    53828   68400      0    1.60e+00    0    1.13e+00
2006 04 03  1905    53828   68700      0    1.57e+00    0    1.10e+00
2006 04 03  1910    53828   69000      0    1.59e+00    0    1.12e+00
2006 04 03  1915    53828   69300      0    1.59e+00    0    1.11e+00
2006 04 03  1920    53828   69600      0    1.60e+00    0    1.12e+00
2006 04 03  1925    53828   69900      0    1.63e+00    0    1.14e+00
2006 04 03  1930    53828   70200      0    1.61e+00    0    1.15e+00
2006 04 03  1935    53828   70500      0    1.63e+00    0    1.15e+00
2006 04 03  1940    53828   70800      0    1.60e+00    0    1.12e+00
2006 04 03  1945    53828   71100      0    1.62e+00    0    1.15e+00
2006 04 03  1950    53828   71400      0    1.63e+00    0    1.14e+00
2006 04 03  1955    53828   71700      0    1.57e+00    0    1.11e+00
2006 04 03  2000    53828   72000      0    1.60e+00    0    1.11e+00
2006 04 03  2005    53828   72300      0    1.61e+00    0    1.12e+00
2006 04 03  2010    53828   72600      0    1.57e+00    0    1.10e+00
2006 04 03  2015    53828   72900      0    1.58e+00    0    1.11e+00
2006 04 03  2020    53828   73200      0    1.54e+00    0    1.08e+00
2006 04 03  2025    53828   73500      0    1.58e+00    0    1.12e+00
2006 04 03  2030    53828   73800      0    1.61e+00    0    1.14e+00
2006 04 03  2035    53828   74100      0    1.62e+00    0    1.13e+00
2006 04 03  2040    53828   74400      0    1.58e+00    0    1.10e+00
2006 04 03  2045    53828   74700      0    1.62e+00    0    1.14e+00
2006 04 03  2050    53828   75000      0    1.61e+00    0    1.13e+00
2006 04 03  2055    53828   75300      0    1.58e+00    0    1.12e+00
2006 04 03  2100    53828   75600      0    1.58e+00    0    1.11e+00
2006 04 03  2105    53828   75900      0    1.58e+00    0    1.10e+00
2006 04 03  2110    53828   76200      0    1.58e+00    0    1.11e+00
2006 04 03  2115    53828   76500      0    1.61e+00    0    1.13e+00
2006 04 03  2120    53828   76800      0    1.58e+00    0    1.11e+00
2006 04 03  2125    53828   77100      0    1.57e+00    0    1.11e+00
2006 04 03  2130    53828   77400      0    1.59e+00    0    1.12e+00
2006 04 03  2135    53828   77700      0    1.56e+00    0    1.11e+00
2006 04 03  2140    53828   78000      0    1.60e+00    0    1.12e+00
2006 04 03  2145    53828   78300      0    1.55e+00    0    1.08e+00
2006 04 03  2150    53828   78600      0    1.62e+00    0    1.12e+00
2006 04 03  2155    53828   78900      0    1.59e+00    0    1.10e+00
2006 04 03  2200    53828   79200      0    1.56e+00    0    1.10e+00
2006 04 03  2205    53828   79500      0    1.62e+00    0    1.14e+00
2006 04 03  2210    53828   79800      0    1.61e+00    0    1.14e+00
2006 04 03  2215    53828   80100      0    1.59e+00    0    1.12e+00
2006 04 03  2220    53828   80400      0    1.59e+00    0    1.12e+00
2006 04 03  2225    53828   80700      0    1.60e+00    0    1.13e+00
2006 04 03  2230    53828   81000      0    1.60e+00    0    1.12e+00
2006 04 03  2235    53828   81300      0    1.65e+00    0    1.16e+00
2006 04 03  2240    53828   81600      0    1.62e+00    0    1.14e+00
2006 04 03  2245    53828   81900      0    1.56e+00    0    1.10e+00
2006 04 03  2250    53828   82200      0    1.60e+00    0    1.13e+00
2006 04 03  2255    53828   82500      0    1.57e+00    0    1.10e+00
2006 04 03  2300    53828   82800      0    1.59e+00    0    1.11e+00
2006 04 03  2305    53828   83100      0    1.65e+00    0    1.15e+00
2006 04 03  2310    53828   83400      0    1.60e+00    0    1.11e+00
2006 04 03  2315    53828   83700      0    1.58e+00    0    1.11e+00
2006 04 03  2320    53828   84000      0    1.54e+00    0    1.09e+00
2006 04 03  2325    53828   84300      0    1.60e+00    0    1.13e+00
2006 04 03  2330    53828   84600      0    1.60e+00    0    1.12e+00
2006 04 03  2335    53828   84900      0    1.60e+00    0    1.13e+00
2006 04 03  2340    53828   85200      0    1.64e+00    0    1.16e+00
2006 04 03  2345    53828   85500      0    1.61e+00    0    1.12e+00
2006 04 03  2350    53828   85800      0    1.62e+00    0    1.13e+00
2006 04 03  2355    53828   86100      0    1.63e+00    0    1.14e+00
