:Data_list: 20060511_ace_sis_5m.txt
:Created: 2006 May 12 0011 UT
# Prepared by the U.S. Dept. of Commerce, NOAA, Space Environment Center.
# Please send comments and suggestions to SEC.Webmaster@noaa.gov 
# 
# Units: proton flux p/cs2-sec-ster
# Status(S): 0 = nominal data, 1 to 8 = bad data record, 9 = no data
# Missing data values: -1.00e+05
# Source: ACE Satellite - Solar Isotope Spectrometer
#
# 5-minute averaged Real-time Integral Flux of High-energy Solar Protons
# 
#                 Modified Seconds
# UT Date   Time   Julian  of the      ---- Integral Proton Flux ----
# YR MO DA  HHMM     Day     Day       S    > 10 MeV    S    > 30 MeV
#--------------------------------------------------------------------
2006 05 11  0000    53866       0      0    1.60e+00    0    1.13e+00
2006 05 11  0005    53866     300      0    1.58e+00    0    1.11e+00
2006 05 11  0010    53866     600      0    1.60e+00    0    1.13e+00
2006 05 11  0015    53866     900      0    1.61e+00    0    1.13e+00
2006 05 11  0020    53866    1200      0    1.59e+00    0    1.11e+00
2006 05 11  0025    53866    1500      0    1.61e+00    0    1.12e+00
2006 05 11  0030    53866    1800      0    1.62e+00    0    1.14e+00
2006 05 11  0035    53866    2100      0    1.59e+00    0    1.11e+00
2006 05 11  0040    53866    2400      0    1.59e+00    0    1.12e+00
2006 05 11  0045    53866    2700      0    1.58e+00    0    1.10e+00
2006 05 11  0050    53866    3000      0    1.60e+00    0    1.11e+00
2006 05 11  0055    53866    3300      0    1.59e+00    0    1.12e+00
2006 05 11  0100    53866    3600      0    1.58e+00    0    1.12e+00
2006 05 11  0105    53866    3900      0    1.56e+00    0    1.13e+00
2006 05 11  0110    53866    4200      0    1.61e+00    0    1.13e+00
2006 05 11  0115    53866    4500      0    1.59e+00    0    1.12e+00
2006 05 11  0120    53866    4800      0    1.59e+00    0    1.11e+00
2006 05 11  0125    53866    5100      0    1.60e+00    0    1.13e+00
2006 05 11  0130    53866    5400      0    1.62e+00    0    1.14e+00
2006 05 11  0135    53866    5700      0    1.57e+00    0    1.10e+00
2006 05 11  0140    53866    6000      0    1.59e+00    0    1.12e+00
2006 05 11  0145    53866    6300      0    1.60e+00    0    1.12e+00
2006 05 11  0150    53866    6600      0    1.59e+00    0    1.12e+00
2006 05 11  0155    53866    6900      0    1.59e+00    0    1.13e+00
2006 05 11  0200    53866    7200      0    1.60e+00    0    1.14e+00
2006 05 11  0205    53866    7500      0    1.59e+00    0    1.11e+00
2006 05 11  0210    53866    7800      0    1.56e+00    0    1.08e+00
2006 05 11  0215    53866    8100      0    1.61e+00    0    1.12e+00
2006 05 11  0220    53866    8400      0    1.57e+00    0    1.11e+00
2006 05 11  0225    53866    8700      0    1.59e+00    0    1.11e+00
2006 05 11  0230    53866    9000      0    1.58e+00    0    1.11e+00
2006 05 11  0235    53866    9300      0    1.57e+00    0    1.11e+00
2006 05 11  0240    53866    9600      0    1.60e+00    0    1.14e+00
2006 05 11  0245    53866    9900      0    1.59e+00    0    1.12e+00
2006 05 11  0250    53866   10200      0    1.57e+00    0    1.10e+00
2006 05 11  0255    53866   10500      0    1.61e+00    0    1.13e+00
2006 05 11  0300    53866   10800      0    1.62e+00    0    1.14e+00
2006 05 11  0305    53866   11100      0    1.59e+00    0    1.12e+00
2006 05 11  0310    53866   11400      0    1.61e+00    0    1.14e+00
2006 05 11  0315    53866   11700      0    1.61e+00    0    1.12e+00
2006 05 11  0320    53866   12000      0    1.60e+00    0    1.12e+00
2006 05 11  0325    53866   12300      0    1.60e+00    0    1.11e+00
2006 05 11  0330    53866   12600      0    1.58e+00    0    1.11e+00
2006 05 11  0335    53866   12900      0    1.59e+00    0    1.12e+00
2006 05 11  0340    53866   13200      0    1.61e+00    0    1.12e+00
2006 05 11  0345    53866   13500      0    1.58e+00    0    1.11e+00
2006 05 11  0350    53866   13800      0    1.62e+00    0    1.13e+00
2006 05 11  0355    53866   14100      0    1.60e+00    0    1.12e+00
2006 05 11  0400    53866   14400      0    1.58e+00    0    1.12e+00
2006 05 11  0405    53866   14700      0    1.59e+00    0    1.13e+00
2006 05 11  0410    53866   15000      0    1.59e+00    0    1.11e+00
2006 05 11  0415    53866   15300      0    1.61e+00    0    1.14e+00
2006 05 11  0420    53866   15600      0    1.59e+00    0    1.10e+00
2006 05 11  0425    53866   15900      0    1.59e+00    0    1.11e+00
2006 05 11  0430    53866   16200      0    1.58e+00    0    1.12e+00
2006 05 11  0435    53866   16500      0    1.63e+00    0    1.15e+00
2006 05 11  0440    53866   16800      0    1.58e+00    0    1.11e+00
2006 05 11  0445    53866   17100      0    1.60e+00    0    1.11e+00
2006 05 11  0450    53866   17400      0    1.60e+00    0    1.11e+00
2006 05 11  0455    53866   17700      0    1.61e+00    0    1.13e+00
2006 05 11  0500    53866   18000      0    1.61e+00    0    1.13e+00
2006 05 11  0505    53866   18300      0    1.60e+00    0    1.13e+00
2006 05 11  0510    53866   18600      0    1.60e+00    0    1.11e+00
2006 05 11  0515    53866   18900      0    1.59e+00    0    1.12e+00
2006 05 11  0520    53866   19200      0    1.62e+00    0    1.15e+00
2006 05 11  0525    53866   19500      0    1.59e+00    0    1.11e+00
2006 05 11  0530    53866   19800      0    1.59e+00    0    1.11e+00
2006 05 11  0535    53866   20100      0    1.58e+00    0    1.12e+00
2006 05 11  0540    53866   20400      0    1.60e+00    0    1.11e+00
2006 05 11  0545    53866   20700      0    1.56e+00    0    1.09e+00
2006 05 11  0550    53866   21000      0    1.55e+00    0    1.08e+00
2006 05 11  0555    53866   21300      0    1.58e+00    0    1.11e+00
2006 05 11  0600    53866   21600      0    1.61e+00    0    1.13e+00
2006 05 11  0605    53866   21900      0    1.61e+00    0    1.13e+00
2006 05 11  0610    53866   22200      0    1.60e+00    0    1.13e+00
2006 05 11  0615    53866   22500      0    1.59e+00    0    1.12e+00
2006 05 11  0620    53866   22800      0    1.59e+00    0    1.11e+00
2006 05 11  0625    53866   23100      0    1.58e+00    0    1.11e+00
2006 05 11  0630    53866   23400      0    1.59e+00    0    1.11e+00
2006 05 11  0635    53866   23700      0    1.61e+00    0    1.13e+00
2006 05 11  0640    53866   24000      0    1.60e+00    0    1.12e+00
2006 05 11  0645    53866   24300      0    1.56e+00    0    1.09e+00
2006 05 11  0650    53866   24600      0    1.62e+00    0    1.14e+00
2006 05 11  0655    53866   24900      0    1.60e+00    0    1.13e+00
2006 05 11  0700    53866   25200      0    1.58e+00    0    1.11e+00
2006 05 11  0705    53866   25500      0    1.59e+00    0    1.13e+00
2006 05 11  0710    53866   25800      0    1.59e+00    0    1.11e+00
2006 05 11  0715    53866   26100      0    1.60e+00    0    1.13e+00
2006 05 11  0720    53866   26400      0    1.56e+00    0    1.10e+00
2006 05 11  0725    53866   26700      0    1.55e+00    0    1.09e+00
2006 05 11  0730    53866   27000      0    1.59e+00    0    1.11e+00
2006 05 11  0735    53866   27300      0    1.55e+00    0    1.07e+00
2006 05 11  0740    53866   27600      0    1.61e+00    0    1.13e+00
2006 05 11  0745    53866   27900      0    1.59e+00    0    1.11e+00
2006 05 11  0750    53866   28200      0    1.58e+00    0    1.11e+00
2006 05 11  0755    53866   28500      0    1.58e+00    0    1.10e+00
2006 05 11  0800    53866   28800      0    1.56e+00    0    1.09e+00
2006 05 11  0805    53866   29100      0    1.58e+00    0    1.11e+00
2006 05 11  0810    53866   29400      0    1.59e+00    0    1.12e+00
2006 05 11  0815    53866   29700      0    1.56e+00    0    1.10e+00
2006 05 11  0820    53866   30000      0    1.56e+00    0    1.10e+00
2006 05 11  0825    53866   30300      0    1.56e+00    0    1.09e+00
2006 05 11  0830    53866   30600      0    1.61e+00    0    1.14e+00
2006 05 11  0835    53866   30900      0    1.60e+00    0    1.12e+00
2006 05 11  0840    53866   31200      0    1.58e+00    0    1.11e+00
2006 05 11  0845    53866   31500      0    1.59e+00    0    1.10e+00
2006 05 11  0850    53866   31800      0    1.58e+00    0    1.11e+00
2006 05 11  0855    53866   32100      0    1.59e+00    0    1.12e+00
2006 05 11  0900    53866   32400      0    1.58e+00    0    1.11e+00
2006 05 11  0905    53866   32700      0    1.58e+00    0    1.10e+00
2006 05 11  0910    53866   33000      0    1.60e+00    0    1.13e+00
2006 05 11  0915    53866   33300      0    1.58e+00    0    1.12e+00
2006 05 11  0920    53866   33600      0    1.59e+00    0    1.10e+00
2006 05 11  0925    53866   33900      0    1.60e+00    0    1.12e+00
2006 05 11  0930    53866   34200      0    1.58e+00    0    1.11e+00
2006 05 11  0935    53866   34500      0    1.58e+00    0    1.10e+00
2006 05 11  0940    53866   34800      0    1.60e+00    0    1.11e+00
2006 05 11  0945    53866   35100      0    1.60e+00    0    1.13e+00
2006 05 11  0950    53866   35400      0    1.62e+00    0    1.14e+00
2006 05 11  0955    53866   35700      0    1.57e+00    0    1.10e+00
2006 05 11  1000    53866   36000      0    1.56e+00    0    1.08e+00
2006 05 11  1005    53866   36300      0    1.57e+00    0    1.11e+00
2006 05 11  1010    53866   36600      0    1.59e+00    0    1.11e+00
2006 05 11  1015    53866   36900      0    1.59e+00    0    1.11e+00
2006 05 11  1020    53866   37200      0    1.57e+00    0    1.09e+00
2006 05 11  1025    53866   37500      0    1.60e+00    0    1.11e+00
2006 05 11  1030    53866   37800      0    1.61e+00    0    1.13e+00
2006 05 11  1035    53866   38100      0    1.61e+00    0    1.12e+00
2006 05 11  1040    53866   38400      0    1.63e+00    0    1.15e+00
2006 05 11  1045    53866   38700      0    1.58e+00    0    1.11e+00
2006 05 11  1050    53866   39000      0    1.62e+00    0    1.13e+00
2006 05 11  1055    53866   39300      0    1.59e+00    0    1.12e+00
2006 05 11  1100    53866   39600      0    1.58e+00    0    1.11e+00
2006 05 11  1105    53866   39900      0    1.57e+00    0    1.10e+00
2006 05 11  1110    53866   40200      0    1.57e+00    0    1.12e+00
2006 05 11  1115    53866   40500      0    1.59e+00    0    1.11e+00
2006 05 11  1120    53866   40800      0    1.59e+00    0    1.11e+00
2006 05 11  1125    53866   41100      0    1.58e+00    0    1.10e+00
2006 05 11  1130    53866   41400      0    1.59e+00    0    1.12e+00
2006 05 11  1135    53866   41700      0    1.60e+00    0    1.12e+00
2006 05 11  1140    53866   42000      0    1.59e+00    0    1.12e+00
2006 05 11  1145    53866   42300      0    1.63e+00    0    1.16e+00
2006 05 11  1150    53866   42600      0    1.60e+00    0    1.12e+00
2006 05 11  1155    53866   42900      0    1.61e+00    0    1.11e+00
2006 05 11  1200    53866   43200      0    1.58e+00    0    1.11e+00
2006 05 11  1205    53866   43500      0    1.57e+00    0    1.10e+00
2006 05 11  1210    53866   43800      0    1.61e+00    0    1.13e+00
2006 05 11  1215    53866   44100      0    1.61e+00    0    1.13e+00
2006 05 11  1220    53866   44400      0    1.59e+00    0    1.11e+00
2006 05 11  1225    53866   44700      0    1.58e+00    0    1.11e+00
2006 05 11  1230    53866   45000      0    1.60e+00    0    1.11e+00
2006 05 11  1235    53866   45300      0    1.57e+00    0    1.12e+00
2006 05 11  1240    53866   45600      0    1.61e+00    0    1.13e+00
2006 05 11  1245    53866   45900      0    1.60e+00    0    1.12e+00
2006 05 11  1250    53866   46200      0    1.58e+00    0    1.11e+00
2006 05 11  1255    53866   46500      0    1.60e+00    0    1.13e+00
2006 05 11  1300    53866   46800      0    1.59e+00    0    1.11e+00
2006 05 11  1305    53866   47100      0    1.59e+00    0    1.11e+00
2006 05 11  1310    53866   47400      0    1.57e+00    0    1.10e+00
2006 05 11  1315    53866   47700      0    1.59e+00    0    1.12e+00
2006 05 11  1320    53866   48000      0    1.59e+00    0    1.12e+00
2006 05 11  1325    53866   48300      0    1.58e+00    0    1.10e+00
2006 05 11  1330    53866   48600      0    1.60e+00    0    1.13e+00
2006 05 11  1335    53866   48900      0    1.56e+00    0    1.10e+00
2006 05 11  1340    53866   49200      0    1.61e+00    0    1.12e+00
2006 05 11  1345    53866   49500      0    1.62e+00    0    1.13e+00
2006 05 11  1350    53866   49800      0    1.57e+00    0    1.11e+00
2006 05 11  1355    53866   50100      0    1.63e+00    0    1.14e+00
2006 05 11  1400    53866   50400      0    1.56e+00    0    1.08e+00
2006 05 11  1405    53866   50700      0    1.58e+00    0    1.11e+00
2006 05 11  1410    53866   51000      0    1.58e+00    0    1.11e+00
2006 05 11  1415    53866   51300      0    1.62e+00    0    1.14e+00
2006 05 11  1420    53866   51600      0    1.58e+00    0    1.11e+00
2006 05 11  1425    53866   51900      0    1.58e+00    0    1.11e+00
2006 05 11  1430    53866   52200      0    1.58e+00    0    1.10e+00
2006 05 11  1435    53866   52500      0    1.61e+00    0    1.14e+00
2006 05 11  1440    53866   52800      0    1.58e+00    0    1.11e+00
2006 05 11  1445    53866   53100      0    1.56e+00    0    1.10e+00
2006 05 11  1450    53866   53400      0    1.59e+00    0    1.11e+00
2006 05 11  1455    53866   53700      0    1.58e+00    0    1.09e+00
2006 05 11  1500    53866   54000      0    1.56e+00    0    1.09e+00
2006 05 11  1505    53866   54300      0    1.63e+00    0    1.15e+00
2006 05 11  1510    53866   54600      0    1.60e+00    0    1.11e+00
2006 05 11  1515    53866   54900      0    1.55e+00    0    1.09e+00
2006 05 11  1520    53866   55200      0    1.57e+00    0    1.10e+00
2006 05 11  1525    53866   55500      0    1.61e+00    0    1.12e+00
2006 05 11  1530    53866   55800      0    1.51e+00    0    9.88e-01
2006 05 11  1535    53866   56100      0    1.55e+00    0    1.09e+00
2006 05 11  1540    53866   56400      0    1.57e+00    0    1.09e+00
2006 05 11  1545    53866   56700      0    1.57e+00    0    7.51e-01
2006 05 11  1550    53866   57000      0    1.59e+00    0    1.12e+00
2006 05 11  1555    53866   57300      0    1.62e+00    0    1.14e+00
2006 05 11  1600    53866   57600      0    1.60e+00    0    1.11e+00
2006 05 11  1605    53866   57900      0    1.60e+00    0    1.13e+00
2006 05 11  1610    53866   58200      0    1.55e+00    0    1.08e+00
2006 05 11  1615    53866   58500      0    1.59e+00    0    1.11e+00
2006 05 11  1620    53866   58800      0    1.61e+00    0    1.14e+00
2006 05 11  1625    53866   59100      0    1.58e+00    0    1.11e+00
2006 05 11  1630    53866   59400      0    1.62e+00    0    1.13e+00
2006 05 11  1635    53866   59700      0    1.59e+00    0    1.12e+00
2006 05 11  1640    53866   60000      0    1.60e+00    0    1.13e+00
2006 05 11  1645    53866   60300      0    1.59e+00    0    1.12e+00
2006 05 11  1650    53866   60600      0    1.56e+00    0    1.08e+00
2006 05 11  1655    53866   60900      0    1.61e+00    0    1.14e+00
2006 05 11  1700    53866   61200      0    1.59e+00    0    1.11e+00
2006 05 11  1705    53866   61500      0    1.59e+00    0    1.12e+00
2006 05 11  1710    53866   61800      0    1.59e+00    0    1.12e+00
2006 05 11  1715    53866   62100      0    1.54e+00    0    1.09e+00
2006 05 11  1720    53866   62400      0    1.58e+00    0    1.10e+00
2006 05 11  1725    53866   62700      0    1.56e+00    0    1.09e+00
2006 05 11  1730    53866   63000      0    1.60e+00    0    1.11e+00
2006 05 11  1735    53866   63300      0    1.57e+00    0    1.10e+00
2006 05 11  1740    53866   63600      0    1.58e+00    0    1.11e+00
2006 05 11  1745    53866   63900      0    1.59e+00    0    1.12e+00
2006 05 11  1750    53866   64200      0    1.56e+00    0    1.10e+00
2006 05 11  1755    53866   64500      0    1.59e+00    0    1.12e+00
2006 05 11  1800    53866   64800      0    1.59e+00    0    1.11e+00
2006 05 11  1805    53866   65100      0    1.58e+00    0    1.11e+00
2006 05 11  1810    53866   65400      0    1.57e+00    0    1.10e+00
2006 05 11  1815    53866   65700      0    1.58e+00    0    1.11e+00
2006 05 11  1820    53866   66000      0    1.53e+00    0    1.08e+00
2006 05 11  1825    53866   66300      0    1.60e+00    0    1.12e+00
2006 05 11  1830    53866   66600      0    1.54e+00    0    1.09e+00
2006 05 11  1835    53866   66900      0    1.58e+00    0    1.11e+00
2006 05 11  1840    53866   67200      0    1.63e+00    0    1.15e+00
2006 05 11  1845    53866   67500      0    1.62e+00    0    1.13e+00
2006 05 11  1850    53866   67800      0    1.58e+00    0    1.10e+00
2006 05 11  1855    53866   68100      0    1.59e+00    0    1.12e+00
2006 05 11  1900    53866   68400      0    1.63e+00    0    1.15e+00
2006 05 11  1905    53866   68700      0    1.58e+00    0    1.11e+00
2006 05 11  1910    53866   69000      0    1.50e+00    0    1.06e+00
2006 05 11  1915    53866   69300      0    1.59e+00    0    1.12e+00
2006 05 11  1920    53866   69600      0    1.54e+00    0    1.07e+00
2006 05 11  1925    53866   69900      0    1.61e+00    0    1.12e+00
2006 05 11  1930    53866   70200      0    1.58e+00    0    1.10e+00
2006 05 11  1935    53866   70500      0    1.56e+00    0    1.09e+00
2006 05 11  1940    53866   70800      0    1.57e+00    0    1.09e+00
2006 05 11  1945    53866   71100      0    1.60e+00    0    1.12e+00
2006 05 11  1950    53866   71400      0    1.59e+00    0    1.12e+00
2006 05 11  1955    53866   71700      0    1.61e+00    0    1.13e+00
2006 05 11  2000    53866   72000      0    1.56e+00    0    1.11e+00
2006 05 11  2005    53866   72300      0    1.56e+00    0    1.10e+00
2006 05 11  2010    53866   72600      0    1.57e+00    0    1.09e+00
2006 05 11  2015    53866   72900      0    1.60e+00    0    1.11e+00
2006 05 11  2020    53866   73200      0    1.59e+00    0    1.12e+00
2006 05 11  2025    53866   73500      0    1.57e+00    0    1.10e+00
2006 05 11  2030    53866   73800      0    1.60e+00    0    1.12e+00
2006 05 11  2035    53866   74100      0    1.57e+00    0    1.10e+00
2006 05 11  2040    53866   74400      0    1.57e+00    0    1.10e+00
2006 05 11  2045    53866   74700      0    1.59e+00    0    1.11e+00
2006 05 11  2050    53866   75000      0    1.56e+00    0    1.09e+00
2006 05 11  2055    53866   75300      0    1.58e+00    0    1.09e+00
2006 05 11  2100    53866   75600      0    1.57e+00    0    1.10e+00
2006 05 11  2105    53866   75900      0    1.56e+00    0    1.08e+00
2006 05 11  2110    53866   76200      0    1.58e+00    0    1.11e+00
2006 05 11  2115    53866   76500      0    1.57e+00    0    1.10e+00
2006 05 11  2120    53866   76800      0    1.61e+00    0    1.13e+00
2006 05 11  2125    53866   77100      0    1.56e+00    0    1.10e+00
2006 05 11  2130    53866   77400      0    1.56e+00    0    1.09e+00
2006 05 11  2135    53866   77700      0    1.59e+00    0    1.11e+00
2006 05 11  2140    53866   78000      0    1.63e+00    0    1.15e+00
2006 05 11  2145    53866   78300      0    1.59e+00    0    1.11e+00
2006 05 11  2150    53866   78600      0    1.60e+00    0    1.14e+00
2006 05 11  2155    53866   78900      0    1.56e+00    0    1.09e+00
2006 05 11  2200    53866   79200      0    1.57e+00    0    1.10e+00
2006 05 11  2205    53866   79500      0    1.54e+00    0    1.08e+00
2006 05 11  2210    53866   79800      0    1.57e+00    0    1.10e+00
2006 05 11  2215    53866   80100      0    1.61e+00    0    1.12e+00
2006 05 11  2220    53866   80400      0    1.59e+00    0    1.10e+00
2006 05 11  2225    53866   80700      0    1.58e+00    0    1.12e+00
2006 05 11  2230    53866   81000      0    1.62e+00    0    1.14e+00
2006 05 11  2235    53866   81300      0    1.54e+00    0    1.08e+00
2006 05 11  2240    53866   81600      0    1.57e+00    0    1.10e+00
2006 05 11  2245    53866   81900      0    1.57e+00    0    1.09e+00
2006 05 11  2250    53866   82200      0    1.60e+00    0    1.12e+00
2006 05 11  2255    53866   82500      0    1.56e+00    0    1.08e+00
2006 05 11  2300    53866   82800      0    1.56e+00    0    1.10e+00
2006 05 11  2305    53866   83100      0    1.56e+00    0    1.10e+00
2006 05 11  2310    53866   83400      0    1.58e+00    0    1.11e+00
2006 05 11  2315    53866   83700      0    1.58e+00    0    1.11e+00
2006 05 11  2320    53866   84000      0    1.59e+00    0    1.11e+00
2006 05 11  2325    53866   84300      0    1.59e+00    0    1.12e+00
2006 05 11  2330    53866   84600      0    1.58e+00    0    1.11e+00
2006 05 11  2335    53866   84900      0    1.56e+00    0    1.09e+00
2006 05 11  2340    53866   85200      0    1.62e+00    0    1.14e+00
2006 05 11  2345    53866   85500      0    1.59e+00    0    1.11e+00
2006 05 11  2350    53866   85800      0    1.58e+00    0    1.10e+00
2006 05 11  2355    53866   86100      0    1.56e+00    0    1.09e+00
