:Data_list: 20060930_ace_sis_5m.txt
:Created: 2006 Oct 01 0011 UT
# Prepared by the U.S. Dept. of Commerce, NOAA, Space Environment Center.
# Please send comments and suggestions to SEC.Webmaster@noaa.gov 
# 
# Units: proton flux p/cs2-sec-ster
# Status(S): 0 = nominal data, 1 to 8 = bad data record, 9 = no data
# Missing data values: -1.00e+05
# Source: ACE Satellite - Solar Isotope Spectrometer
#
# 5-minute averaged Real-time Integral Flux of High-energy Solar Protons
# 
#                 Modified Seconds
# UT Date   Time   Julian  of the      ---- Integral Proton Flux ----
# YR MO DA  HHMM     Day     Day       S    > 10 MeV    S    > 30 MeV
#--------------------------------------------------------------------
2006 09 30  0000    54008       0      0    1.66e+00    0    1.15e+00
2006 09 30  0005    54008     300      0    1.69e+00    0    1.20e+00
2006 09 30  0010    54008     600      0    1.68e+00    0    1.18e+00
2006 09 30  0015    54008     900      0    1.69e+00    0    1.19e+00
2006 09 30  0020    54008    1200      0    1.65e+00    0    1.15e+00
2006 09 30  0025    54008    1500      0    1.70e+00    0    1.18e+00
2006 09 30  0030    54008    1800      0    1.69e+00    0    1.20e+00
2006 09 30  0035    54008    2100      0    1.68e+00    0    1.18e+00
2006 09 30  0040    54008    2400      0    1.69e+00    0    1.19e+00
2006 09 30  0045    54008    2700      0    1.70e+00    0    1.17e+00
2006 09 30  0050    54008    3000      0    1.70e+00    0    1.19e+00
2006 09 30  0055    54008    3300      0    1.69e+00    0    1.20e+00
2006 09 30  0100    54008    3600      0    1.62e+00    0    1.13e+00
2006 09 30  0105    54008    3900      0    1.69e+00    0    1.18e+00
2006 09 30  0110    54008    4200      0    1.66e+00    0    1.17e+00
2006 09 30  0115    54008    4500      0    1.65e+00    0    1.16e+00
2006 09 30  0120    54008    4800      0    1.70e+00    0    1.19e+00
2006 09 30  0125    54008    5100      0    1.67e+00    0    1.17e+00
2006 09 30  0130    54008    5400      0    1.67e+00    0    1.17e+00
2006 09 30  0135    54008    5700      0    1.69e+00    0    1.19e+00
2006 09 30  0140    54008    6000      0    1.70e+00    0    1.19e+00
2006 09 30  0145    54008    6300      0    1.68e+00    0    1.17e+00
2006 09 30  0150    54008    6600      0    1.67e+00    0    1.17e+00
2006 09 30  0155    54008    6900      0    1.67e+00    0    1.16e+00
2006 09 30  0200    54008    7200      0    1.69e+00    0    1.18e+00
2006 09 30  0205    54008    7500      0    1.69e+00    0    1.18e+00
2006 09 30  0210    54008    7800      0    1.67e+00    0    1.16e+00
2006 09 30  0215    54008    8100      0    1.68e+00    0    1.17e+00
2006 09 30  0220    54008    8400      0    1.67e+00    0    1.17e+00
2006 09 30  0225    54008    8700      0    1.69e+00    0    1.18e+00
2006 09 30  0230    54008    9000      0    1.67e+00    0    1.17e+00
2006 09 30  0235    54008    9300      0    1.67e+00    0    1.18e+00
2006 09 30  0240    54008    9600      0    1.69e+00    0    1.19e+00
2006 09 30  0245    54008    9900      0    1.72e+00    0    1.21e+00
2006 09 30  0250    54008   10200      0    1.71e+00    0    1.20e+00
2006 09 30  0255    54008   10500      0    1.65e+00    0    1.16e+00
2006 09 30  0300    54008   10800      0    1.69e+00    0    1.19e+00
2006 09 30  0305    54008   11100      0    1.66e+00    0    1.17e+00
2006 09 30  0310    54008   11400      0    1.69e+00    0    1.19e+00
2006 09 30  0315    54008   11700      0    1.67e+00    0    1.17e+00
2006 09 30  0320    54008   12000      0    1.69e+00    0    1.19e+00
2006 09 30  0325    54008   12300      0    1.73e+00    0    1.22e+00
2006 09 30  0330    54008   12600      0    1.66e+00    0    1.17e+00
2006 09 30  0335    54008   12900      0    1.69e+00    0    1.19e+00
2006 09 30  0340    54008   13200      0    1.69e+00    0    1.20e+00
2006 09 30  0345    54008   13500      0    1.68e+00    0    1.17e+00
2006 09 30  0350    54008   13800      0    1.67e+00    0    1.17e+00
2006 09 30  0355    54008   14100      0    1.69e+00    0    1.19e+00
2006 09 30  0400    54008   14400      0    1.69e+00    0    1.19e+00
2006 09 30  0405    54008   14700      0    1.66e+00    0    1.16e+00
2006 09 30  0410    54008   15000      0    1.57e+00    0    1.11e+00
2006 09 30  0415    54008   15300      0    1.67e+00    0    1.17e+00
2006 09 30  0420    54008   15600      0    1.70e+00    0    1.21e+00
2006 09 30  0425    54008   15900      0    1.69e+00    0    1.18e+00
2006 09 30  0430    54008   16200      0    1.67e+00    0    1.17e+00
2006 09 30  0435    54008   16500      0    1.67e+00    0    1.16e+00
2006 09 30  0440    54008   16800      0    1.65e+00    0    1.16e+00
2006 09 30  0445    54008   17100      0    1.68e+00    0    1.18e+00
2006 09 30  0450    54008   17400      0    1.66e+00    0    1.17e+00
2006 09 30  0455    54008   17700      0    1.68e+00    0    1.19e+00
2006 09 30  0500    54008   18000      0    1.67e+00    0    1.18e+00
2006 09 30  0505    54008   18300      0    1.73e+00    0    1.21e+00
2006 09 30  0510    54008   18600      0    1.67e+00    0    1.17e+00
2006 09 30  0515    54008   18900      0    1.70e+00    0    1.19e+00
2006 09 30  0520    54008   19200      0    1.66e+00    0    1.16e+00
2006 09 30  0525    54008   19500      0    1.70e+00    0    1.20e+00
2006 09 30  0530    54008   19800      0    1.71e+00    0    1.21e+00
2006 09 30  0535    54008   20100      0    1.68e+00    0    1.18e+00
2006 09 30  0540    54008   20400      0    1.66e+00    0    1.17e+00
2006 09 30  0545    54008   20700      0    1.69e+00    0    1.19e+00
2006 09 30  0550    54008   21000      0    1.66e+00    0    1.16e+00
2006 09 30  0555    54008   21300      0    1.64e+00    0    1.16e+00
2006 09 30  0600    54008   21600      0    1.65e+00    0    1.14e+00
2006 09 30  0605    54008   21900      0    1.70e+00    0    1.20e+00
2006 09 30  0610    54008   22200      0    1.67e+00    0    1.17e+00
2006 09 30  0615    54008   22500      0    1.67e+00    0    1.18e+00
2006 09 30  0620    54008   22800      0    1.68e+00    0    1.18e+00
2006 09 30  0625    54008   23100      0    1.70e+00    0    1.19e+00
2006 09 30  0630    54008   23400      0    1.71e+00    0    1.20e+00
2006 09 30  0635    54008   23700      0    1.64e+00    0    1.14e+00
2006 09 30  0640    54008   24000      0    1.68e+00    0    1.19e+00
2006 09 30  0645    54008   24300      0    1.73e+00    0    1.22e+00
2006 09 30  0650    54008   24600      0    1.66e+00    0    1.17e+00
2006 09 30  0655    54008   24900      0    1.69e+00    0    1.20e+00
2006 09 30  0700    54008   25200      0    1.71e+00    0    1.20e+00
2006 09 30  0705    54008   25500      0    1.69e+00    0    1.18e+00
2006 09 30  0710    54008   25800      0    1.68e+00    0    1.17e+00
2006 09 30  0715    54008   26100      0    1.66e+00    0    1.15e+00
2006 09 30  0720    54008   26400      0    1.64e+00    0    1.16e+00
2006 09 30  0725    54008   26700      0    1.66e+00    0    1.16e+00
2006 09 30  0730    54008   27000      0    1.65e+00    0    1.17e+00
2006 09 30  0735    54008   27300      0    1.68e+00    0    1.17e+00
2006 09 30  0740    54008   27600      0    1.67e+00    0    1.17e+00
2006 09 30  0745    54008   27900      0    1.65e+00    0    1.16e+00
2006 09 30  0750    54008   28200      0    1.69e+00    0    1.18e+00
2006 09 30  0755    54008   28500      0    1.69e+00    0    1.19e+00
2006 09 30  0800    54008   28800      0    1.68e+00    0    1.17e+00
2006 09 30  0805    54008   29100      0    1.68e+00    0    1.18e+00
2006 09 30  0810    54008   29400      0    1.64e+00    0    1.14e+00
2006 09 30  0815    54008   29700      0    1.66e+00    0    1.16e+00
2006 09 30  0820    54008   30000      0    1.67e+00    0    1.17e+00
2006 09 30  0825    54008   30300      0    1.68e+00    0    1.17e+00
2006 09 30  0830    54008   30600      0    1.70e+00    0    1.19e+00
2006 09 30  0835    54008   30900      0    1.64e+00    0    1.16e+00
2006 09 30  0840    54008   31200      0    1.66e+00    0    1.15e+00
2006 09 30  0845    54008   31500      0    1.69e+00    0    1.19e+00
2006 09 30  0850    54008   31800      0    1.64e+00    0    1.14e+00
2006 09 30  0855    54008   32100      0    1.65e+00    0    1.16e+00
2006 09 30  0900    54008   32400      0    1.70e+00    0    1.21e+00
2006 09 30  0905    54008   32700      0    1.64e+00    0    1.16e+00
2006 09 30  0910    54008   33000      0    1.66e+00    0    1.16e+00
2006 09 30  0915    54008   33300      0    1.63e+00    0    1.14e+00
2006 09 30  0920    54008   33600      0    1.68e+00    0    1.17e+00
2006 09 30  0925    54008   33900      0    1.58e+00    0    1.11e+00
2006 09 30  0930    54008   34200      0    1.68e+00    0    1.18e+00
2006 09 30  0935    54008   34500      0    1.65e+00    0    1.15e+00
2006 09 30  0940    54008   34800      0    1.62e+00    0    1.13e+00
2006 09 30  0945    54008   35100      0    1.65e+00    0    1.16e+00
2006 09 30  0950    54008   35400      0    1.65e+00    0    1.15e+00
2006 09 30  0955    54008   35700      0    1.70e+00    0    1.18e+00
2006 09 30  1000    54008   36000      0    1.61e+00    0    1.13e+00
2006 09 30  1005    54008   36300      0    1.65e+00    0    1.15e+00
2006 09 30  1010    54008   36600      0    1.64e+00    0    1.14e+00
2006 09 30  1015    54008   36900      0    1.61e+00    0    1.14e+00
2006 09 30  1020    54008   37200      0    1.65e+00    0    1.17e+00
2006 09 30  1025    54008   37500      0    1.59e+00    0    1.12e+00
2006 09 30  1030    54008   37800      0    1.61e+00    0    1.15e+00
2006 09 30  1035    54008   38100      0    1.64e+00    0    1.14e+00
2006 09 30  1040    54008   38400      0    1.63e+00    0    1.14e+00
2006 09 30  1045    54008   38700      0    1.63e+00    0    1.15e+00
2006 09 30  1050    54008   39000      0    1.68e+00    0    1.18e+00
2006 09 30  1055    54008   39300      0    1.64e+00    0    1.16e+00
2006 09 30  1100    54008   39600      0    1.64e+00    0    1.15e+00
2006 09 30  1105    54008   39900      0    1.64e+00    0    1.15e+00
2006 09 30  1110    54008   40200      0    1.62e+00    0    1.13e+00
2006 09 30  1115    54008   40500      0    1.62e+00    0    1.14e+00
2006 09 30  1120    54008   40800      0    1.65e+00    0    1.15e+00
2006 09 30  1125    54008   41100      0    1.62e+00    0    1.14e+00
2006 09 30  1130    54008   41400      0    1.61e+00    0    1.14e+00
2006 09 30  1135    54008   41700      0    1.65e+00    0    1.15e+00
2006 09 30  1140    54008   42000      0    1.66e+00    0    1.16e+00
2006 09 30  1145    54008   42300      0    1.61e+00    0    1.13e+00
2006 09 30  1150    54008   42600      0    1.63e+00    0    1.15e+00
2006 09 30  1155    54008   42900      0    1.64e+00    0    1.15e+00
2006 09 30  1200    54008   43200      0    1.70e+00    0    1.19e+00
2006 09 30  1205    54008   43500      0    1.68e+00    0    1.17e+00
2006 09 30  1210    54008   43800      0    1.67e+00    0    1.17e+00
2006 09 30  1215    54008   44100      0    1.69e+00    0    1.18e+00
2006 09 30  1220    54008   44400      0    1.59e+00    0    1.11e+00
2006 09 30  1225    54008   44700      0    1.64e+00    0    1.15e+00
2006 09 30  1230    54008   45000      0    1.63e+00    0    1.15e+00
2006 09 30  1235    54008   45300      0    1.65e+00    0    1.16e+00
2006 09 30  1240    54008   45600      0    1.68e+00    0    1.18e+00
2006 09 30  1245    54008   45900      0    1.62e+00    0    1.15e+00
2006 09 30  1250    54008   46200      0    1.65e+00    0    1.15e+00
2006 09 30  1255    54008   46500      0    1.66e+00    0    1.16e+00
2006 09 30  1300    54008   46800      0    1.64e+00    0    1.16e+00
2006 09 30  1305    54008   47100      0    1.64e+00    0    1.15e+00
2006 09 30  1310    54008   47400      0    1.61e+00    0    1.12e+00
2006 09 30  1315    54008   47700      0    1.63e+00    0    1.14e+00
2006 09 30  1320    54008   48000      0    1.69e+00    0    1.18e+00
2006 09 30  1325    54008   48300      0    1.65e+00    0    1.16e+00
2006 09 30  1330    54008   48600      0    1.65e+00    0    1.15e+00
2006 09 30  1335    54008   48900      0    1.67e+00    0    1.17e+00
2006 09 30  1340    54008   49200      0    1.70e+00    0    1.19e+00
2006 09 30  1345    54008   49500      0    1.67e+00    0    1.18e+00
2006 09 30  1350    54008   49800      0    1.60e+00    0    1.13e+00
2006 09 30  1355    54008   50100      0    1.67e+00    0    1.17e+00
2006 09 30  1400    54008   50400      0    1.63e+00    0    1.14e+00
2006 09 30  1405    54008   50700      0    1.66e+00    0    1.17e+00
2006 09 30  1410    54008   51000      0    1.65e+00    0    1.17e+00
2006 09 30  1415    54008   51300      0    1.65e+00    0    1.16e+00
2006 09 30  1420    54008   51600      0    1.62e+00    0    1.13e+00
2006 09 30  1425    54008   51900      0    1.65e+00    0    1.16e+00
2006 09 30  1430    54008   52200      0    1.66e+00    0    1.16e+00
2006 09 30  1435    54008   52500      0    1.66e+00    0    1.18e+00
2006 09 30  1440    54008   52800      0    1.64e+00    0    1.15e+00
2006 09 30  1445    54008   53100      0    1.64e+00    0    1.15e+00
2006 09 30  1450    54008   53400      0    1.66e+00    0    1.16e+00
2006 09 30  1455    54008   53700      0    1.68e+00    0    1.18e+00
2006 09 30  1500    54008   54000      0    1.62e+00    0    1.14e+00
2006 09 30  1505    54008   54300      0    1.65e+00    0    1.16e+00
2006 09 30  1510    54008   54600      0    1.65e+00    0    1.16e+00
2006 09 30  1515    54008   54900      0    1.61e+00    0    1.14e+00
2006 09 30  1520    54008   55200      0    1.64e+00    0    1.15e+00
2006 09 30  1525    54008   55500      0    1.68e+00    0    1.18e+00
2006 09 30  1530    54008   55800      0    1.65e+00    0    1.15e+00
2006 09 30  1535    54008   56100      0    1.62e+00    0    1.14e+00
2006 09 30  1540    54008   56400      0    1.66e+00    0    1.17e+00
2006 09 30  1545    54008   56700      0    1.65e+00    0    1.16e+00
2006 09 30  1550    54008   57000      0    1.66e+00    0    1.16e+00
2006 09 30  1555    54008   57300      0    1.68e+00    0    1.17e+00
2006 09 30  1600    54008   57600      0    1.65e+00    0    1.16e+00
2006 09 30  1605    54008   57900      0    1.64e+00    0    1.15e+00
2006 09 30  1610    54008   58200      0    1.69e+00    0    1.19e+00
2006 09 30  1615    54008   58500      0    1.65e+00    0    1.16e+00
2006 09 30  1620    54008   58800      0    1.60e+00    0    1.12e+00
2006 09 30  1625    54008   59100      0    1.63e+00    0    1.14e+00
2006 09 30  1630    54008   59400      0    1.64e+00    0    1.14e+00
2006 09 30  1635    54008   59700      0    1.66e+00    0    1.16e+00
2006 09 30  1640    54008   60000      0    1.63e+00    0    1.15e+00
2006 09 30  1645    54008   60300      0    1.64e+00    0    1.15e+00
2006 09 30  1650    54008   60600      0    1.63e+00    0    1.14e+00
2006 09 30  1655    54008   60900      0    1.63e+00    0    1.15e+00
2006 09 30  1700    54008   61200      0    1.62e+00    0    1.14e+00
2006 09 30  1705    54008   61500      0    1.64e+00    0    1.16e+00
2006 09 30  1710    54008   61800      0    1.61e+00    0    1.13e+00
2006 09 30  1715    54008   62100      0    1.61e+00    0    1.13e+00
2006 09 30  1720    54008   62400      0    1.62e+00    0    1.13e+00
2006 09 30  1725    54008   62700      0    1.62e+00    0    1.14e+00
2006 09 30  1730    54008   63000      0    1.65e+00    0    1.16e+00
2006 09 30  1735    54008   63300      0    1.64e+00    0    1.15e+00
2006 09 30  1740    54008   63600      0    1.68e+00    0    1.17e+00
2006 09 30  1745    54008   63900      0    1.60e+00    0    1.13e+00
2006 09 30  1750    54008   64200      0    1.64e+00    0    1.14e+00
2006 09 30  1755    54008   64500      0    1.61e+00    0    1.12e+00
2006 09 30  1800    54008   64800      0    1.62e+00    0    1.13e+00
2006 09 30  1805    54008   65100      0    1.62e+00    0    1.13e+00
2006 09 30  1810    54008   65400      0    1.64e+00    0    1.15e+00
2006 09 30  1815    54008   65700      0    1.61e+00    0    1.12e+00
2006 09 30  1820    54008   66000      0    1.63e+00    0    1.14e+00
2006 09 30  1825    54008   66300      0    1.62e+00    0    1.14e+00
2006 09 30  1830    54008   66600      0    1.63e+00    0    1.15e+00
2006 09 30  1835    54008   66900      0    1.63e+00    0    1.15e+00
2006 09 30  1840    54008   67200      0    1.62e+00    0    1.15e+00
2006 09 30  1845    54008   67500      0    1.63e+00    0    1.14e+00
2006 09 30  1850    54008   67800      0    1.64e+00    0    1.14e+00
2006 09 30  1855    54008   68100      0    1.64e+00    0    1.15e+00
2006 09 30  1900    54008   68400      0    1.58e+00    0    1.11e+00
2006 09 30  1905    54008   68700      0    1.65e+00    0    1.17e+00
2006 09 30  1910    54008   69000      0    1.65e+00    0    1.16e+00
2006 09 30  1915    54008   69300      0    1.64e+00    0    1.15e+00
2006 09 30  1920    54008   69600      0    1.63e+00    0    1.14e+00
2006 09 30  1925    54008   69900      0    1.61e+00    0    1.12e+00
2006 09 30  1930    54008   70200      0    1.66e+00    0    1.16e+00
2006 09 30  1935    54008   70500      0    1.60e+00    0    1.12e+00
2006 09 30  1940    54008   70800      0    1.66e+00    0    1.16e+00
2006 09 30  1945    54008   71100      0    1.66e+00    0    1.17e+00
2006 09 30  1950    54008   71400      0    1.58e+00    0    1.10e+00
2006 09 30  1955    54008   71700      0    1.63e+00    0    1.15e+00
2006 09 30  2000    54008   72000      0    1.63e+00    0    1.15e+00
2006 09 30  2005    54008   72300      0    1.61e+00    0    1.12e+00
2006 09 30  2010    54008   72600      0    1.59e+00    0    1.12e+00
2006 09 30  2015    54008   72900      0    1.64e+00    0    1.15e+00
2006 09 30  2020    54008   73200      0    1.63e+00    0    1.14e+00
2006 09 30  2025    54008   73500      0    1.63e+00    0    1.13e+00
2006 09 30  2030    54008   73800      0    1.63e+00    0    1.14e+00
2006 09 30  2035    54008   74100      0    1.63e+00    0    1.14e+00
2006 09 30  2040    54008   74400      0    1.64e+00    0    1.14e+00
2006 09 30  2045    54008   74700      0    1.66e+00    0    1.17e+00
2006 09 30  2050    54008   75000      0    1.64e+00    0    1.14e+00
2006 09 30  2055    54008   75300      0    1.65e+00    0    1.17e+00
2006 09 30  2100    54008   75600      0    1.63e+00    0    1.13e+00
2006 09 30  2105    54008   75900      0    1.65e+00    0    1.15e+00
2006 09 30  2110    54008   76200      0    1.65e+00    0    1.16e+00
2006 09 30  2115    54008   76500      0    1.65e+00    0    1.16e+00
2006 09 30  2120    54008   76800      0    1.61e+00    0    1.12e+00
2006 09 30  2125    54008   77100      0    1.64e+00    0    1.16e+00
2006 09 30  2130    54008   77400      0    1.62e+00    0    1.14e+00
2006 09 30  2135    54008   77700      0    1.61e+00    0    1.12e+00
2006 09 30  2140    54008   78000      0    1.64e+00    0    1.14e+00
2006 09 30  2145    54008   78300      0    1.67e+00    0    1.16e+00
2006 09 30  2150    54008   78600      0    1.64e+00    0    1.16e+00
2006 09 30  2155    54008   78900      0    1.64e+00    0    1.15e+00
2006 09 30  2200    54008   79200      0    1.59e+00    0    1.12e+00
2006 09 30  2205    54008   79500      0    1.63e+00    0    1.13e+00
2006 09 30  2210    54008   79800      0    1.63e+00    0    1.14e+00
2006 09 30  2215    54008   80100      0    1.63e+00    0    1.14e+00
2006 09 30  2220    54008   80400      0    1.63e+00    0    1.15e+00
2006 09 30  2225    54008   80700      0    1.64e+00    0    1.15e+00
2006 09 30  2230    54008   81000      0    1.62e+00    0    1.14e+00
2006 09 30  2235    54008   81300      0    1.66e+00    0    1.18e+00
2006 09 30  2240    54008   81600      0    1.63e+00    0    1.14e+00
2006 09 30  2245    54008   81900      0    1.67e+00    0    1.18e+00
2006 09 30  2250    54008   82200      0    1.63e+00    0    1.14e+00
2006 09 30  2255    54008   82500      0    1.64e+00    0    1.15e+00
2006 09 30  2300    54008   82800      0    1.67e+00    0    1.17e+00
2006 09 30  2305    54008   83100      0    1.62e+00    0    1.13e+00
2006 09 30  2310    54008   83400      0    1.65e+00    0    1.16e+00
2006 09 30  2315    54008   83700      0    1.63e+00    0    1.15e+00
2006 09 30  2320    54008   84000      0    1.64e+00    0    1.15e+00
2006 09 30  2325    54008   84300      0    1.64e+00    0    1.15e+00
2006 09 30  2330    54008   84600      0    1.62e+00    0    1.14e+00
2006 09 30  2335    54008   84900      0    1.62e+00    0    1.14e+00
2006 09 30  2340    54008   85200      0    1.62e+00    0    1.15e+00
2006 09 30  2345    54008   85500      0    1.61e+00    0    1.11e+00
2006 09 30  2350    54008   85800      0    1.65e+00    0    1.14e+00
2006 09 30  2355    54008   86100      0    1.63e+00    0    1.16e+00
