:Data_list: 20060910_ace_sis_5m.txt
:Created: 2006 Sep 11 0011 UT
# Prepared by the U.S. Dept. of Commerce, NOAA, Space Environment Center.
# Please send comments and suggestions to SEC.Webmaster@noaa.gov 
# 
# Units: proton flux p/cs2-sec-ster
# Status(S): 0 = nominal data, 1 to 8 = bad data record, 9 = no data
# Missing data values: -1.00e+05
# Source: ACE Satellite - Solar Isotope Spectrometer
#
# 5-minute averaged Real-time Integral Flux of High-energy Solar Protons
# 
#                 Modified Seconds
# UT Date   Time   Julian  of the      ---- Integral Proton Flux ----
# YR MO DA  HHMM     Day     Day       S    > 10 MeV    S    > 30 MeV
#--------------------------------------------------------------------
2006 09 10  0000    53988       0      0    1.65e+00    0    1.16e+00
2006 09 10  0005    53988     300      0    1.62e+00    0    1.14e+00
2006 09 10  0010    53988     600      0    1.59e+00    0    1.11e+00
2006 09 10  0015    53988     900      0    1.59e+00    0    1.11e+00
2006 09 10  0020    53988    1200      0    1.62e+00    0    1.14e+00
2006 09 10  0025    53988    1500      0    1.64e+00    0    1.14e+00
2006 09 10  0030    53988    1800      0    1.62e+00    0    1.15e+00
2006 09 10  0035    53988    2100      0    1.60e+00    0    1.12e+00
2006 09 10  0040    53988    2400      0    1.63e+00    0    1.14e+00
2006 09 10  0045    53988    2700      0    1.65e+00    0    1.16e+00
2006 09 10  0050    53988    3000      0    1.63e+00    0    1.14e+00
2006 09 10  0055    53988    3300      0    1.60e+00    0    1.13e+00
2006 09 10  0100    53988    3600      0    1.60e+00    0    1.12e+00
2006 09 10  0105    53988    3900      0    1.62e+00    0    1.13e+00
2006 09 10  0110    53988    4200      0    1.63e+00    0    1.14e+00
2006 09 10  0115    53988    4500      0    1.59e+00    0    1.11e+00
2006 09 10  0120    53988    4800      0    1.61e+00    0    1.14e+00
2006 09 10  0125    53988    5100      0    1.63e+00    0    1.14e+00
2006 09 10  0130    53988    5400      0    1.62e+00    0    1.13e+00
2006 09 10  0135    53988    5700      0    1.57e+00    0    1.12e+00
2006 09 10  0140    53988    6000      0    1.61e+00    0    1.12e+00
2006 09 10  0145    53988    6300      0    1.62e+00    0    1.14e+00
2006 09 10  0150    53988    6600      0    1.64e+00    0    1.14e+00
2006 09 10  0155    53988    6900      0    1.62e+00    0    1.13e+00
2006 09 10  0200    53988    7200      0    1.62e+00    0    1.12e+00
2006 09 10  0205    53988    7500      0    1.62e+00    0    1.13e+00
2006 09 10  0210    53988    7800      0    1.63e+00    0    1.14e+00
2006 09 10  0215    53988    8100      0    1.61e+00    0    1.14e+00
2006 09 10  0220    53988    8400      0    1.63e+00    0    1.14e+00
2006 09 10  0225    53988    8700      0    1.60e+00    0    1.12e+00
2006 09 10  0230    53988    9000      0    1.61e+00    0    1.13e+00
2006 09 10  0235    53988    9300      0    1.60e+00    0    1.12e+00
2006 09 10  0240    53988    9600      0    1.65e+00    0    1.17e+00
2006 09 10  0245    53988    9900      0    1.63e+00    0    1.14e+00
2006 09 10  0250    53988   10200      0    1.60e+00    0    1.11e+00
2006 09 10  0255    53988   10500      0    1.65e+00    0    1.16e+00
2006 09 10  0300    53988   10800      0    1.62e+00    0    1.14e+00
2006 09 10  0305    53988   11100      0    1.63e+00    0    1.15e+00
2006 09 10  0310    53988   11400      0    1.69e+00    0    1.19e+00
2006 09 10  0315    53988   11700      0    1.66e+00    0    1.16e+00
2006 09 10  0320    53988   12000      0    1.62e+00    0    1.13e+00
2006 09 10  0325    53988   12300      0    1.60e+00    0    1.13e+00
2006 09 10  0330    53988   12600      0    1.61e+00    0    1.12e+00
2006 09 10  0335    53988   12900      0    1.61e+00    0    1.14e+00
2006 09 10  0340    53988   13200      0    1.63e+00    0    1.14e+00
2006 09 10  0345    53988   13500      0    1.61e+00    0    1.14e+00
2006 09 10  0350    53988   13800      0    1.58e+00    0    1.10e+00
2006 09 10  0355    53988   14100      0    1.59e+00    0    1.12e+00
2006 09 10  0400    53988   14400      0    1.63e+00    0    1.14e+00
2006 09 10  0405    53988   14700      0    1.64e+00    0    1.16e+00
2006 09 10  0410    53988   15000      0    1.61e+00    0    1.12e+00
2006 09 10  0415    53988   15300      0    1.66e+00    0    1.17e+00
2006 09 10  0420    53988   15600      0    1.58e+00    0    1.10e+00
2006 09 10  0425    53988   15900      0    1.59e+00    0    1.13e+00
2006 09 10  0430    53988   16200      0    1.64e+00    0    1.15e+00
2006 09 10  0435    53988   16500      0    1.62e+00    0    1.14e+00
2006 09 10  0440    53988   16800      0    1.63e+00    0    1.14e+00
2006 09 10  0445    53988   17100      0    1.61e+00    0    1.12e+00
2006 09 10  0450    53988   17400      0    1.62e+00    0    1.13e+00
2006 09 10  0455    53988   17700      0    1.63e+00    0    1.14e+00
2006 09 10  0500    53988   18000      0    1.62e+00    0    1.14e+00
2006 09 10  0505    53988   18300      0    1.60e+00    0    1.12e+00
2006 09 10  0510    53988   18600      0    1.54e+00    0    1.07e+00
2006 09 10  0515    53988   18900      0    1.61e+00    0    1.12e+00
2006 09 10  0520    53988   19200      0    1.60e+00    0    1.12e+00
2006 09 10  0525    53988   19500      0    1.65e+00    0    1.16e+00
2006 09 10  0530    53988   19800      0    1.61e+00    0    1.12e+00
2006 09 10  0535    53988   20100      0    1.60e+00    0    1.13e+00
2006 09 10  0540    53988   20400      0    1.62e+00    0    1.15e+00
2006 09 10  0545    53988   20700      0    1.62e+00    0    1.14e+00
2006 09 10  0550    53988   21000      0    1.59e+00    0    1.11e+00
2006 09 10  0555    53988   21300      0    1.60e+00    0    1.12e+00
2006 09 10  0600    53988   21600      9   -1.00e+05    9   -1.00e+05
2006 09 10  0605    53988   21900      9   -1.00e+05    9   -1.00e+05
2006 09 10  0610    53988   22200      9   -1.00e+05    9   -1.00e+05
2006 09 10  0615    53988   22500      9   -1.00e+05    9   -1.00e+05
2006 09 10  0620    53988   22800      9   -1.00e+05    9   -1.00e+05
2006 09 10  0625    53988   23100      0    1.60e+00    0    1.12e+00
2006 09 10  0630    53988   23400      0    1.60e+00    0    1.13e+00
2006 09 10  0635    53988   23700      0    1.62e+00    0    1.14e+00
2006 09 10  0640    53988   24000      0    1.63e+00    0    1.15e+00
2006 09 10  0645    53988   24300      0    1.67e+00    0    1.17e+00
2006 09 10  0650    53988   24600      0    1.63e+00    0    1.14e+00
2006 09 10  0655    53988   24900      0    1.65e+00    0    1.15e+00
2006 09 10  0700    53988   25200      0    1.63e+00    0    1.14e+00
2006 09 10  0705    53988   25500      0    1.66e+00    0    1.16e+00
2006 09 10  0710    53988   25800      0    1.66e+00    0    1.16e+00
2006 09 10  0715    53988   26100      0    1.68e+00    0    1.18e+00
2006 09 10  0720    53988   26400      0    1.65e+00    0    1.14e+00
2006 09 10  0725    53988   26700      0    1.61e+00    0    1.13e+00
2006 09 10  0730    53988   27000      0    1.65e+00    0    1.16e+00
2006 09 10  0735    53988   27300      0    1.67e+00    0    1.15e+00
2006 09 10  0740    53988   27600      0    1.66e+00    0    1.17e+00
2006 09 10  0745    53988   27900      0    1.63e+00    0    1.14e+00
2006 09 10  0750    53988   28200      0    1.65e+00    0    1.15e+00
2006 09 10  0755    53988   28500      0    1.65e+00    0    1.15e+00
2006 09 10  0800    53988   28800      0    1.63e+00    0    1.13e+00
2006 09 10  0805    53988   29100      0    1.68e+00    0    1.17e+00
2006 09 10  0810    53988   29400      0    1.68e+00    0    1.17e+00
2006 09 10  0815    53988   29700      0    1.64e+00    0    1.14e+00
2006 09 10  0820    53988   30000      0    1.65e+00    0    1.16e+00
2006 09 10  0825    53988   30300      0    1.69e+00    0    1.19e+00
2006 09 10  0830    53988   30600      0    1.63e+00    0    1.15e+00
2006 09 10  0835    53988   30900      0    1.67e+00    0    1.17e+00
2006 09 10  0840    53988   31200      0    1.66e+00    0    1.17e+00
2006 09 10  0845    53988   31500      0    1.68e+00    0    1.19e+00
2006 09 10  0850    53988   31800      0    1.67e+00    0    1.17e+00
2006 09 10  0855    53988   32100      0    1.64e+00    0    1.16e+00
2006 09 10  0900    53988   32400      0    1.67e+00    0    1.16e+00
2006 09 10  0905    53988   32700      0    1.65e+00    0    1.15e+00
2006 09 10  0910    53988   33000      0    1.63e+00    0    1.14e+00
2006 09 10  0915    53988   33300      0    1.64e+00    0    1.15e+00
2006 09 10  0920    53988   33600      0    1.64e+00    0    1.15e+00
2006 09 10  0925    53988   33900      0    1.67e+00    0    1.18e+00
2006 09 10  0930    53988   34200      0    1.65e+00    0    1.15e+00
2006 09 10  0935    53988   34500      0    1.66e+00    0    1.16e+00
2006 09 10  0940    53988   34800      0    1.66e+00    0    1.16e+00
2006 09 10  0945    53988   35100      0    1.65e+00    0    1.15e+00
2006 09 10  0950    53988   35400      0    1.64e+00    0    1.15e+00
2006 09 10  0955    53988   35700      0    1.67e+00    0    1.17e+00
2006 09 10  1000    53988   36000      0    1.63e+00    0    1.16e+00
2006 09 10  1005    53988   36300      0    1.65e+00    0    1.14e+00
2006 09 10  1010    53988   36600      0    1.62e+00    0    1.14e+00
2006 09 10  1015    53988   36900      0    1.63e+00    0    1.15e+00
2006 09 10  1020    53988   37200      0    1.66e+00    0    1.17e+00
2006 09 10  1025    53988   37500      0    1.65e+00    0    1.15e+00
2006 09 10  1030    53988   37800      0    1.58e+00    0    1.11e+00
2006 09 10  1035    53988   38100      0    1.63e+00    0    1.15e+00
2006 09 10  1040    53988   38400      0    1.66e+00    0    1.18e+00
2006 09 10  1045    53988   38700      0    1.65e+00    0    1.14e+00
2006 09 10  1050    53988   39000      0    1.65e+00    0    1.15e+00
2006 09 10  1055    53988   39300      0    1.64e+00    0    1.16e+00
2006 09 10  1100    53988   39600      0    1.62e+00    0    1.13e+00
2006 09 10  1105    53988   39900      0    1.66e+00    0    1.18e+00
2006 09 10  1110    53988   40200      0    1.63e+00    0    1.14e+00
2006 09 10  1115    53988   40500      0    1.64e+00    0    1.14e+00
2006 09 10  1120    53988   40800      0    1.63e+00    0    1.16e+00
2006 09 10  1125    53988   41100      0    1.62e+00    0    1.14e+00
2006 09 10  1130    53988   41400      0    1.65e+00    0    1.15e+00
2006 09 10  1135    53988   41700      0    1.63e+00    0    1.15e+00
2006 09 10  1140    53988   42000      0    1.67e+00    0    1.17e+00
2006 09 10  1145    53988   42300      0    1.63e+00    0    1.15e+00
2006 09 10  1150    53988   42600      0    1.59e+00    0    1.11e+00
2006 09 10  1155    53988   42900      0    1.65e+00    0    1.15e+00
2006 09 10  1200    53988   43200      0    1.60e+00    0    1.12e+00
2006 09 10  1205    53988   43500      0    1.58e+00    0    1.11e+00
2006 09 10  1210    53988   43800      0    1.61e+00    0    1.13e+00
2006 09 10  1215    53988   44100      0    1.62e+00    0    1.14e+00
2006 09 10  1220    53988   44400      0    1.65e+00    0    1.17e+00
2006 09 10  1225    53988   44700      0    1.65e+00    0    1.16e+00
2006 09 10  1230    53988   45000      0    1.63e+00    0    1.14e+00
2006 09 10  1235    53988   45300      0    1.61e+00    0    1.13e+00
2006 09 10  1240    53988   45600      0    1.61e+00    0    1.14e+00
2006 09 10  1245    53988   45900      0    1.61e+00    0    1.13e+00
2006 09 10  1250    53988   46200      0    1.63e+00    0    1.14e+00
2006 09 10  1255    53988   46500      0    1.61e+00    0    1.13e+00
2006 09 10  1300    53988   46800      0    1.63e+00    0    1.14e+00
2006 09 10  1305    53988   47100      0    1.62e+00    0    1.14e+00
2006 09 10  1310    53988   47400      0    1.69e+00    0    1.18e+00
2006 09 10  1315    53988   47700      0    1.65e+00    0    1.16e+00
2006 09 10  1320    53988   48000      0    1.66e+00    0    1.16e+00
2006 09 10  1325    53988   48300      0    1.62e+00    0    1.13e+00
2006 09 10  1330    53988   48600      0    1.60e+00    0    1.11e+00
2006 09 10  1335    53988   48900      0    1.65e+00    0    1.17e+00
2006 09 10  1340    53988   49200      0    1.65e+00    0    1.16e+00
2006 09 10  1345    53988   49500      0    1.62e+00    0    1.13e+00
2006 09 10  1350    53988   49800      0    1.65e+00    0    1.16e+00
2006 09 10  1355    53988   50100      0    1.66e+00    0    1.16e+00
2006 09 10  1400    53988   50400      0    1.65e+00    0    1.15e+00
2006 09 10  1405    53988   50700      0    1.65e+00    0    1.15e+00
2006 09 10  1410    53988   51000      0    1.61e+00    0    1.13e+00
2006 09 10  1415    53988   51300      0    1.64e+00    0    1.15e+00
2006 09 10  1420    53988   51600      0    1.65e+00    0    1.15e+00
2006 09 10  1425    53988   51900      0    1.65e+00    0    1.15e+00
2006 09 10  1430    53988   52200      0    1.63e+00    0    1.13e+00
2006 09 10  1435    53988   52500      0    1.62e+00    0    1.13e+00
2006 09 10  1440    53988   52800      0    1.65e+00    0    1.15e+00
2006 09 10  1445    53988   53100      0    1.63e+00    0    1.14e+00
2006 09 10  1450    53988   53400      0    1.68e+00    0    1.18e+00
2006 09 10  1455    53988   53700      0    1.63e+00    0    1.14e+00
2006 09 10  1500    53988   54000      0    1.64e+00    0    1.14e+00
2006 09 10  1505    53988   54300      0    1.67e+00    0    1.17e+00
2006 09 10  1510    53988   54600      0    1.66e+00    0    1.16e+00
2006 09 10  1515    53988   54900      0    1.66e+00    0    1.17e+00
2006 09 10  1520    53988   55200      0    1.65e+00    0    1.15e+00
2006 09 10  1525    53988   55500      0    1.63e+00    0    1.15e+00
2006 09 10  1530    53988   55800      0    1.65e+00    0    1.17e+00
2006 09 10  1535    53988   56100      0    1.64e+00    0    1.15e+00
2006 09 10  1540    53988   56400      0    1.62e+00    0    1.12e+00
2006 09 10  1545    53988   56700      0    1.66e+00    0    1.17e+00
2006 09 10  1550    53988   57000      0    1.68e+00    0    1.18e+00
2006 09 10  1555    53988   57300      0    1.65e+00    0    1.16e+00
2006 09 10  1600    53988   57600      0    1.59e+00    0    1.12e+00
2006 09 10  1605    53988   57900      0    1.62e+00    0    1.13e+00
2006 09 10  1610    53988   58200      0    1.64e+00    0    1.15e+00
2006 09 10  1615    53988   58500      0    1.65e+00    0    1.16e+00
2006 09 10  1620    53988   58800      0    1.62e+00    0    1.15e+00
2006 09 10  1625    53988   59100      0    1.61e+00    0    1.13e+00
2006 09 10  1630    53988   59400      0    1.60e+00    0    1.12e+00
2006 09 10  1635    53988   59700      0    1.65e+00    0    1.16e+00
2006 09 10  1640    53988   60000      0    1.61e+00    0    1.12e+00
2006 09 10  1645    53988   60300      0    1.61e+00    0    1.12e+00
2006 09 10  1650    53988   60600      0    1.64e+00    0    1.15e+00
2006 09 10  1655    53988   60900      0    1.63e+00    0    1.15e+00
2006 09 10  1700    53988   61200      0    1.63e+00    0    1.15e+00
2006 09 10  1705    53988   61500      0    1.63e+00    0    1.15e+00
2006 09 10  1710    53988   61800      0    1.62e+00    0    1.15e+00
2006 09 10  1715    53988   62100      0    1.65e+00    0    1.15e+00
2006 09 10  1720    53988   62400      0    1.61e+00    0    1.13e+00
2006 09 10  1725    53988   62700      0    1.63e+00    0    1.13e+00
2006 09 10  1730    53988   63000      0    1.66e+00    0    1.16e+00
2006 09 10  1735    53988   63300      0    1.66e+00    0    1.16e+00
2006 09 10  1740    53988   63600      0    1.64e+00    0    1.16e+00
2006 09 10  1745    53988   63900      0    1.64e+00    0    1.15e+00
2006 09 10  1750    53988   64200      0    1.62e+00    0    1.13e+00
2006 09 10  1755    53988   64500      0    1.66e+00    0    1.15e+00
2006 09 10  1800    53988   64800      0    1.66e+00    0    1.16e+00
2006 09 10  1805    53988   65100      0    1.68e+00    0    1.19e+00
2006 09 10  1810    53988   65400      0    1.69e+00    0    1.19e+00
2006 09 10  1815    53988   65700      0    1.68e+00    0    1.18e+00
2006 09 10  1820    53988   66000      0    1.61e+00    0    1.13e+00
2006 09 10  1825    53988   66300      0    1.65e+00    0    1.15e+00
2006 09 10  1830    53988   66600      0    1.62e+00    0    1.13e+00
2006 09 10  1835    53988   66900      0    1.66e+00    0    1.16e+00
2006 09 10  1840    53988   67200      0    1.62e+00    0    1.14e+00
2006 09 10  1845    53988   67500      0    1.63e+00    0    1.14e+00
2006 09 10  1850    53988   67800      0    1.65e+00    0    1.15e+00
2006 09 10  1855    53988   68100      0    1.65e+00    0    1.14e+00
2006 09 10  1900    53988   68400      0    1.62e+00    0    1.14e+00
2006 09 10  1905    53988   68700      0    1.66e+00    0    1.15e+00
2006 09 10  1910    53988   69000      0    1.62e+00    0    1.14e+00
2006 09 10  1915    53988   69300      0    1.63e+00    0    1.13e+00
2006 09 10  1920    53988   69600      0    1.65e+00    0    1.16e+00
2006 09 10  1925    53988   69900      0    1.67e+00    0    1.18e+00
2006 09 10  1930    53988   70200      0    1.63e+00    0    1.14e+00
2006 09 10  1935    53988   70500      0    1.65e+00    0    1.15e+00
2006 09 10  1940    53988   70800      0    1.63e+00    0    1.14e+00
2006 09 10  1945    53988   71100      0    1.64e+00    0    1.16e+00
2006 09 10  1950    53988   71400      0    1.65e+00    0    1.15e+00
2006 09 10  1955    53988   71700      0    1.60e+00    0    1.12e+00
2006 09 10  2000    53988   72000      0    1.63e+00    0    1.14e+00
2006 09 10  2005    53988   72300      0    1.64e+00    0    1.15e+00
2006 09 10  2010    53988   72600      0    1.60e+00    0    1.12e+00
2006 09 10  2015    53988   72900      0    1.62e+00    0    1.13e+00
2006 09 10  2020    53988   73200      0    1.62e+00    0    1.15e+00
2006 09 10  2025    53988   73500      0    1.62e+00    0    1.14e+00
2006 09 10  2030    53988   73800      0    1.64e+00    0    1.15e+00
2006 09 10  2035    53988   74100      0    1.62e+00    0    1.13e+00
2006 09 10  2040    53988   74400      0    1.63e+00    0    1.13e+00
2006 09 10  2045    53988   74700      0    1.64e+00    0    1.15e+00
2006 09 10  2050    53988   75000      0    1.65e+00    0    1.15e+00
2006 09 10  2055    53988   75300      0    1.63e+00    0    1.14e+00
2006 09 10  2100    53988   75600      0    1.63e+00    0    1.14e+00
2006 09 10  2105    53988   75900      0    1.63e+00    0    1.15e+00
2006 09 10  2110    53988   76200      0    1.63e+00    0    1.14e+00
2006 09 10  2115    53988   76500      0    1.62e+00    0    1.14e+00
2006 09 10  2120    53988   76800      0    1.63e+00    0    1.15e+00
2006 09 10  2125    53988   77100      0    1.65e+00    0    1.16e+00
2006 09 10  2130    53988   77400      0    1.63e+00    0    1.15e+00
2006 09 10  2135    53988   77700      0    1.61e+00    0    1.12e+00
2006 09 10  2140    53988   78000      0    1.67e+00    0    1.17e+00
2006 09 10  2145    53988   78300      0    1.64e+00    0    1.16e+00
2006 09 10  2150    53988   78600      0    1.62e+00    0    1.12e+00
2006 09 10  2155    53988   78900      0    1.63e+00    0    1.15e+00
2006 09 10  2200    53988   79200      0    1.61e+00    0    1.11e+00
2006 09 10  2205    53988   79500      0    1.66e+00    0    1.17e+00
2006 09 10  2210    53988   79800      0    1.65e+00    0    1.15e+00
2006 09 10  2215    53988   80100      0    1.63e+00    0    1.14e+00
2006 09 10  2220    53988   80400      0    1.66e+00    0    1.17e+00
2006 09 10  2225    53988   80700      0    1.63e+00    0    1.14e+00
2006 09 10  2230    53988   81000      0    1.65e+00    0    1.15e+00
2006 09 10  2235    53988   81300      0    1.63e+00    0    1.14e+00
2006 09 10  2240    53988   81600      0    1.60e+00    0    1.11e+00
2006 09 10  2245    53988   81900      0    1.62e+00    0    1.14e+00
2006 09 10  2250    53988   82200      0    1.61e+00    0    1.13e+00
2006 09 10  2255    53988   82500      0    1.61e+00    0    1.14e+00
2006 09 10  2300    53988   82800      9   -1.00e+05    9   -1.00e+05
2006 09 10  2305    53988   83100      9   -1.00e+05    9   -1.00e+05
2006 09 10  2310    53988   83400      9   -1.00e+05    9   -1.00e+05
2006 09 10  2315    53988   83700      9   -1.00e+05    9   -1.00e+05
2006 09 10  2320    53988   84000      9   -1.00e+05    9   -1.00e+05
2006 09 10  2325    53988   84300      9   -1.00e+05    9   -1.00e+05
2006 09 10  2330    53988   84600      9   -1.00e+05    9   -1.00e+05
2006 09 10  2335    53988   84900      9   -1.00e+05    9   -1.00e+05
2006 09 10  2340    53988   85200      9   -1.00e+05    9   -1.00e+05
2006 09 10  2345    53988   85500      9   -1.00e+05    9   -1.00e+05
2006 09 10  2350    53988   85800      9   -1.00e+05    9   -1.00e+05
2006 09 10  2355    53988   86100      9   -1.00e+05    9   -1.00e+05
