:Data_list: 20061019_ace_sis_5m.txt
:Created: 2006 Oct 20 0011 UT
# Prepared by the U.S. Dept. of Commerce, NOAA, Space Environment Center.
# Please send comments and suggestions to SEC.Webmaster@noaa.gov 
# 
# Units: proton flux p/cs2-sec-ster
# Status(S): 0 = nominal data, 1 to 8 = bad data record, 9 = no data
# Missing data values: -1.00e+05
# Source: ACE Satellite - Solar Isotope Spectrometer
#
# 5-minute averaged Real-time Integral Flux of High-energy Solar Protons
# 
#                 Modified Seconds
# UT Date   Time   Julian  of the      ---- Integral Proton Flux ----
# YR MO DA  HHMM     Day     Day       S    > 10 MeV    S    > 30 MeV
#--------------------------------------------------------------------
2006 10 19  0000    54027       0      0    1.76e+00    0    1.23e+00
2006 10 19  0005    54027     300      0    1.74e+00    0    1.22e+00
2006 10 19  0010    54027     600      0    1.77e+00    0    1.26e+00
2006 10 19  0015    54027     900      9   -1.00e+05    9   -1.00e+05
2006 10 19  0020    54027    1200      9   -1.00e+05    9   -1.00e+05
2006 10 19  0025    54027    1500      9   -1.00e+05    9   -1.00e+05
2006 10 19  0030    54027    1800      9   -1.00e+05    9   -1.00e+05
2006 10 19  0035    54027    2100      9   -1.00e+05    9   -1.00e+05
2006 10 19  0040    54027    2400      0    1.79e+00    0    1.25e+00
2006 10 19  0045    54027    2700      0    1.74e+00    0    1.23e+00
2006 10 19  0050    54027    3000      0    1.78e+00    0    1.24e+00
2006 10 19  0055    54027    3300      0    1.79e+00    0    1.25e+00
2006 10 19  0100    54027    3600      0    1.79e+00    0    1.25e+00
2006 10 19  0105    54027    3900      0    1.77e+00    0    1.25e+00
2006 10 19  0110    54027    4200      0    1.73e+00    0    1.21e+00
2006 10 19  0115    54027    4500      0    1.75e+00    0    1.23e+00
2006 10 19  0120    54027    4800      0    1.77e+00    0    1.23e+00
2006 10 19  0125    54027    5100      0    1.72e+00    0    1.21e+00
2006 10 19  0130    54027    5400      0    1.71e+00    0    1.20e+00
2006 10 19  0135    54027    5700      0    1.77e+00    0    1.24e+00
2006 10 19  0140    54027    6000      0    1.79e+00    0    1.26e+00
2006 10 19  0145    54027    6300      0    1.75e+00    0    1.22e+00
2006 10 19  0150    54027    6600      0    1.80e+00    0    1.26e+00
2006 10 19  0155    54027    6900      0    1.71e+00    0    1.19e+00
2006 10 19  0200    54027    7200      9   -1.00e+05    9   -1.00e+05
2006 10 19  0205    54027    7500      9   -1.00e+05    9   -1.00e+05
2006 10 19  0210    54027    7800      9   -1.00e+05    9   -1.00e+05
2006 10 19  0215    54027    8100      9   -1.00e+05    9   -1.00e+05
2006 10 19  0220    54027    8400      9   -1.00e+05    9   -1.00e+05
2006 10 19  0225    54027    8700      9   -1.00e+05    9   -1.00e+05
2006 10 19  0230    54027    9000      9   -1.00e+05    9   -1.00e+05
2006 10 19  0235    54027    9300      9   -1.00e+05    9   -1.00e+05
2006 10 19  0240    54027    9600      9   -1.00e+05    9   -1.00e+05
2006 10 19  0245    54027    9900      9   -1.00e+05    9   -1.00e+05
2006 10 19  0250    54027   10200      9   -1.00e+05    9   -1.00e+05
2006 10 19  0255    54027   10500      9   -1.00e+05    9   -1.00e+05
2006 10 19  0300    54027   10800      9   -1.00e+05    9   -1.00e+05
2006 10 19  0305    54027   11100      9   -1.00e+05    9   -1.00e+05
2006 10 19  0310    54027   11400      9   -1.00e+05    9   -1.00e+05
2006 10 19  0315    54027   11700      9   -1.00e+05    9   -1.00e+05
2006 10 19  0320    54027   12000      9   -1.00e+05    9   -1.00e+05
2006 10 19  0325    54027   12300      9   -1.00e+05    9   -1.00e+05
2006 10 19  0330    54027   12600      9   -1.00e+05    9   -1.00e+05
2006 10 19  0335    54027   12900      9   -1.00e+05    9   -1.00e+05
2006 10 19  0340    54027   13200      9   -1.00e+05    9   -1.00e+05
2006 10 19  0345    54027   13500      9   -1.00e+05    9   -1.00e+05
2006 10 19  0350    54027   13800      9   -1.00e+05    9   -1.00e+05
2006 10 19  0355    54027   14100      9   -1.00e+05    9   -1.00e+05
2006 10 19  0400    54027   14400      9   -1.00e+05    9   -1.00e+05
2006 10 19  0405    54027   14700      9   -1.00e+05    9   -1.00e+05
2006 10 19  0410    54027   15000      0    1.82e+00    0    1.28e+00
2006 10 19  0415    54027   15300      0    1.75e+00    0    1.22e+00
2006 10 19  0420    54027   15600      0    1.74e+00    0    1.23e+00
2006 10 19  0425    54027   15900      0    1.74e+00    0    1.22e+00
2006 10 19  0430    54027   16200      0    1.76e+00    0    1.22e+00
2006 10 19  0435    54027   16500      0    1.74e+00    0    1.22e+00
2006 10 19  0440    54027   16800      0    1.73e+00    0    1.21e+00
2006 10 19  0445    54027   17100      0    1.72e+00    0    1.20e+00
2006 10 19  0450    54027   17400      0    1.69e+00    0    1.19e+00
2006 10 19  0455    54027   17700      0    1.69e+00    0    1.18e+00
2006 10 19  0500    54027   18000      0    1.69e+00    0    1.19e+00
2006 10 19  0505    54027   18300      0    1.73e+00    0    1.22e+00
2006 10 19  0510    54027   18600      0    1.65e+00    0    1.16e+00
2006 10 19  0515    54027   18900      0    1.74e+00    0    1.23e+00
2006 10 19  0520    54027   19200      0    1.72e+00    0    1.19e+00
2006 10 19  0525    54027   19500      0    1.71e+00    0    1.20e+00
2006 10 19  0530    54027   19800      0    1.73e+00    0    1.20e+00
2006 10 19  0535    54027   20100      0    1.72e+00    0    1.20e+00
2006 10 19  0540    54027   20400      0    1.68e+00    0    1.17e+00
2006 10 19  0545    54027   20700      0    1.69e+00    0    1.18e+00
2006 10 19  0550    54027   21000      0    1.71e+00    0    1.21e+00
2006 10 19  0555    54027   21300      0    1.74e+00    0    1.22e+00
2006 10 19  0600    54027   21600      0    1.68e+00    0    1.18e+00
2006 10 19  0605    54027   21900      0    1.66e+00    0    1.16e+00
2006 10 19  0610    54027   22200      0    1.70e+00    0    1.19e+00
2006 10 19  0615    54027   22500      0    1.71e+00    0    1.22e+00
2006 10 19  0620    54027   22800      0    1.70e+00    0    1.20e+00
2006 10 19  0625    54027   23100      0    1.69e+00    0    1.18e+00
2006 10 19  0630    54027   23400      0    1.69e+00    0    1.18e+00
2006 10 19  0635    54027   23700      0    1.69e+00    0    1.20e+00
2006 10 19  0640    54027   24000      0    1.72e+00    0    1.19e+00
2006 10 19  0645    54027   24300      0    1.68e+00    0    1.18e+00
2006 10 19  0650    54027   24600      0    1.72e+00    0    1.21e+00
2006 10 19  0655    54027   24900      0    1.73e+00    0    1.22e+00
2006 10 19  0700    54027   25200      0    1.70e+00    0    1.18e+00
2006 10 19  0705    54027   25500      0    1.70e+00    0    1.19e+00
2006 10 19  0710    54027   25800      0    1.67e+00    0    1.16e+00
2006 10 19  0715    54027   26100      0    1.72e+00    0    1.20e+00
2006 10 19  0720    54027   26400      0    1.72e+00    0    1.20e+00
2006 10 19  0725    54027   26700      0    1.71e+00    0    1.20e+00
2006 10 19  0730    54027   27000      0    1.73e+00    0    1.22e+00
2006 10 19  0735    54027   27300      0    1.74e+00    0    1.22e+00
2006 10 19  0740    54027   27600      0    1.71e+00    0    1.21e+00
2006 10 19  0745    54027   27900      0    1.75e+00    0    1.23e+00
2006 10 19  0750    54027   28200      0    1.73e+00    0    1.21e+00
2006 10 19  0755    54027   28500      0    1.72e+00    0    1.20e+00
2006 10 19  0800    54027   28800      0    1.73e+00    0    1.21e+00
2006 10 19  0805    54027   29100      0    1.72e+00    0    1.20e+00
2006 10 19  0810    54027   29400      0    1.69e+00    0    1.18e+00
2006 10 19  0815    54027   29700      0    1.73e+00    0    1.22e+00
2006 10 19  0820    54027   30000      0    1.74e+00    0    1.22e+00
2006 10 19  0825    54027   30300      0    1.75e+00    0    1.22e+00
2006 10 19  0830    54027   30600      0    1.70e+00    0    1.20e+00
2006 10 19  0835    54027   30900      0    1.75e+00    0    1.22e+00
2006 10 19  0840    54027   31200      0    1.76e+00    0    1.23e+00
2006 10 19  0845    54027   31500      0    1.72e+00    0    1.21e+00
2006 10 19  0850    54027   31800      0    1.78e+00    0    1.27e+00
2006 10 19  0855    54027   32100      0    1.72e+00    0    1.19e+00
2006 10 19  0900    54027   32400      0    1.73e+00    0    1.23e+00
2006 10 19  0905    54027   32700      0    1.73e+00    0    1.22e+00
2006 10 19  0910    54027   33000      0    1.71e+00    0    1.20e+00
2006 10 19  0915    54027   33300      0    1.73e+00    0    1.22e+00
2006 10 19  0920    54027   33600      0    1.76e+00    0    1.24e+00
2006 10 19  0925    54027   33900      0    1.74e+00    0    1.22e+00
2006 10 19  0930    54027   34200      0    1.73e+00    0    1.22e+00
2006 10 19  0935    54027   34500      0    1.74e+00    0    1.22e+00
2006 10 19  0940    54027   34800      0    1.67e+00    0    1.16e+00
2006 10 19  0945    54027   35100      0    1.73e+00    0    1.21e+00
2006 10 19  0950    54027   35400      0    1.71e+00    0    1.20e+00
2006 10 19  0955    54027   35700      0    1.70e+00    0    1.20e+00
2006 10 19  1000    54027   36000      0    1.71e+00    0    1.20e+00
2006 10 19  1005    54027   36300      0    1.72e+00    0    1.20e+00
2006 10 19  1010    54027   36600      0    1.70e+00    0    1.19e+00
2006 10 19  1015    54027   36900      0    1.70e+00    0    1.20e+00
2006 10 19  1020    54027   37200      0    1.74e+00    0    1.22e+00
2006 10 19  1025    54027   37500      0    1.72e+00    0    1.20e+00
2006 10 19  1030    54027   37800      0    1.59e+00    0    1.11e+00
2006 10 19  1035    54027   38100      0    1.73e+00    0    1.23e+00
2006 10 19  1040    54027   38400      0    1.73e+00    0    1.21e+00
2006 10 19  1045    54027   38700      0    1.70e+00    0    1.20e+00
2006 10 19  1050    54027   39000      0    1.75e+00    0    1.22e+00
2006 10 19  1055    54027   39300      0    1.66e+00    0    1.16e+00
2006 10 19  1100    54027   39600      0    1.75e+00    0    1.22e+00
2006 10 19  1105    54027   39900      0    1.76e+00    0    1.23e+00
2006 10 19  1110    54027   40200      0    1.75e+00    0    1.22e+00
2006 10 19  1115    54027   40500      0    1.68e+00    0    1.17e+00
2006 10 19  1120    54027   40800      0    1.67e+00    0    1.16e+00
2006 10 19  1125    54027   41100      0    1.72e+00    0    1.20e+00
2006 10 19  1130    54027   41400      0    1.75e+00    0    1.22e+00
2006 10 19  1135    54027   41700      0    1.75e+00    0    1.23e+00
2006 10 19  1140    54027   42000      0    1.72e+00    0    1.21e+00
2006 10 19  1145    54027   42300      0    1.70e+00    0    1.19e+00
2006 10 19  1150    54027   42600      0    1.74e+00    0    1.22e+00
2006 10 19  1155    54027   42900      0    1.73e+00    0    1.21e+00
2006 10 19  1200    54027   43200      0    1.75e+00    0    1.22e+00
2006 10 19  1205    54027   43500      0    1.73e+00    0    1.22e+00
2006 10 19  1210    54027   43800      0    1.68e+00    0    1.17e+00
2006 10 19  1215    54027   44100      0    1.72e+00    0    1.20e+00
2006 10 19  1220    54027   44400      0    1.74e+00    0    1.22e+00
2006 10 19  1225    54027   44700      0    1.72e+00    0    1.21e+00
2006 10 19  1230    54027   45000      0    1.73e+00    0    1.21e+00
2006 10 19  1235    54027   45300      0    1.77e+00    0    1.23e+00
2006 10 19  1240    54027   45600      0    1.74e+00    0    1.22e+00
2006 10 19  1245    54027   45900      0    1.69e+00    0    1.19e+00
2006 10 19  1250    54027   46200      0    1.74e+00    0    1.21e+00
2006 10 19  1255    54027   46500      0    1.74e+00    0    1.21e+00
2006 10 19  1300    54027   46800      0    1.71e+00    0    1.20e+00
2006 10 19  1305    54027   47100      0    1.74e+00    0    1.22e+00
2006 10 19  1310    54027   47400      0    1.76e+00    0    1.25e+00
2006 10 19  1315    54027   47700      0    1.73e+00    0    1.21e+00
2006 10 19  1320    54027   48000      0    1.75e+00    0    1.23e+00
2006 10 19  1325    54027   48300      0    1.77e+00    0    1.26e+00
2006 10 19  1330    54027   48600      0    1.74e+00    0    1.23e+00
2006 10 19  1335    54027   48900      0    1.71e+00    0    1.20e+00
2006 10 19  1340    54027   49200      0    1.75e+00    0    1.23e+00
2006 10 19  1345    54027   49500      0    1.72e+00    0    1.21e+00
2006 10 19  1350    54027   49800      0    1.69e+00    0    1.18e+00
2006 10 19  1355    54027   50100      0    1.73e+00    0    1.22e+00
2006 10 19  1400    54027   50400      0    1.73e+00    0    1.22e+00
2006 10 19  1405    54027   50700      0    1.69e+00    0    1.18e+00
2006 10 19  1410    54027   51000      0    1.69e+00    0    1.18e+00
2006 10 19  1415    54027   51300      0    1.75e+00    0    1.23e+00
2006 10 19  1420    54027   51600      0    1.74e+00    0    1.21e+00
2006 10 19  1425    54027   51900      0    1.74e+00    0    1.22e+00
2006 10 19  1430    54027   52200      0    1.75e+00    0    1.22e+00
2006 10 19  1435    54027   52500      0    1.70e+00    0    1.20e+00
2006 10 19  1440    54027   52800      0    1.74e+00    0    1.22e+00
2006 10 19  1445    54027   53100      0    1.71e+00    0    1.21e+00
2006 10 19  1450    54027   53400      0    1.74e+00    0    1.22e+00
2006 10 19  1455    54027   53700      0    1.75e+00    0    1.23e+00
2006 10 19  1500    54027   54000      0    1.74e+00    0    1.21e+00
2006 10 19  1505    54027   54300      0    1.70e+00    0    1.19e+00
2006 10 19  1510    54027   54600      0    1.73e+00    0    1.21e+00
2006 10 19  1515    54027   54900      0    1.65e+00    0    1.16e+00
2006 10 19  1520    54027   55200      0    1.70e+00    0    1.19e+00
2006 10 19  1525    54027   55500      0    1.77e+00    0    1.24e+00
2006 10 19  1530    54027   55800      0    1.73e+00    0    1.23e+00
2006 10 19  1535    54027   56100      0    1.72e+00    0    1.20e+00
2006 10 19  1540    54027   56400      0    1.75e+00    0    1.23e+00
2006 10 19  1545    54027   56700      0    1.78e+00    0    1.26e+00
2006 10 19  1550    54027   57000      0    1.78e+00    0    1.26e+00
2006 10 19  1555    54027   57300      0    1.69e+00    0    1.18e+00
2006 10 19  1600    54027   57600      0    1.71e+00    0    1.19e+00
2006 10 19  1605    54027   57900      0    1.76e+00    0    1.24e+00
2006 10 19  1610    54027   58200      0    1.70e+00    0    1.20e+00
2006 10 19  1615    54027   58500      0    1.73e+00    0    1.22e+00
2006 10 19  1620    54027   58800      0    1.71e+00    0    1.19e+00
2006 10 19  1625    54027   59100      0    1.67e+00    0    1.17e+00
2006 10 19  1630    54027   59400      0    1.75e+00    0    1.22e+00
2006 10 19  1635    54027   59700      0    1.73e+00    0    1.21e+00
2006 10 19  1640    54027   60000      0    1.79e+00    0    1.25e+00
2006 10 19  1645    54027   60300      0    1.71e+00    0    1.20e+00
2006 10 19  1650    54027   60600      0    1.73e+00    0    1.22e+00
2006 10 19  1655    54027   60900      0    1.71e+00    0    1.20e+00
2006 10 19  1700    54027   61200      0    1.75e+00    0    1.21e+00
2006 10 19  1705    54027   61500      0    1.77e+00    0    1.24e+00
2006 10 19  1710    54027   61800      0    1.73e+00    0    1.20e+00
2006 10 19  1715    54027   62100      0    1.73e+00    0    1.22e+00
2006 10 19  1720    54027   62400      0    1.70e+00    0    1.19e+00
2006 10 19  1725    54027   62700      0    1.77e+00    0    1.24e+00
2006 10 19  1730    54027   63000      0    1.75e+00    0    1.23e+00
2006 10 19  1735    54027   63300      0    1.76e+00    0    1.24e+00
2006 10 19  1740    54027   63600      0    1.77e+00    0    1.25e+00
2006 10 19  1745    54027   63900      0    1.72e+00    0    1.20e+00
2006 10 19  1750    54027   64200      0    1.73e+00    0    1.22e+00
2006 10 19  1755    54027   64500      0    1.73e+00    0    1.20e+00
2006 10 19  1800    54027   64800      0    1.74e+00    0    1.22e+00
2006 10 19  1805    54027   65100      0    1.73e+00    0    1.20e+00
2006 10 19  1810    54027   65400      0    1.73e+00    0    1.21e+00
2006 10 19  1815    54027   65700      0    1.77e+00    0    1.25e+00
2006 10 19  1820    54027   66000      0    1.76e+00    0    1.23e+00
2006 10 19  1825    54027   66300      0    1.74e+00    0    1.21e+00
2006 10 19  1830    54027   66600      0    1.78e+00    0    1.25e+00
2006 10 19  1835    54027   66900      0    1.71e+00    0    1.20e+00
2006 10 19  1840    54027   67200      0    1.72e+00    0    1.19e+00
2006 10 19  1845    54027   67500      9   -1.00e+05    9   -1.00e+05
2006 10 19  1850    54027   67800      9   -1.00e+05    9   -1.00e+05
2006 10 19  1855    54027   68100      9   -1.00e+05    9   -1.00e+05
2006 10 19  1900    54027   68400      9   -1.00e+05    9   -1.00e+05
2006 10 19  1905    54027   68700      9   -1.00e+05    9   -1.00e+05
2006 10 19  1910    54027   69000      9   -1.00e+05    9   -1.00e+05
2006 10 19  1915    54027   69300      9   -1.00e+05    9   -1.00e+05
2006 10 19  1920    54027   69600      9   -1.00e+05    9   -1.00e+05
2006 10 19  1925    54027   69900      9   -1.00e+05    9   -1.00e+05
2006 10 19  1930    54027   70200      0    1.70e+00    0    1.20e+00
2006 10 19  1935    54027   70500      0    1.74e+00    0    1.22e+00
2006 10 19  1940    54027   70800      0    1.73e+00    0    1.20e+00
2006 10 19  1945    54027   71100      0    1.69e+00    0    1.20e+00
2006 10 19  1950    54027   71400      0    1.75e+00    0    1.24e+00
2006 10 19  1955    54027   71700      0    1.76e+00    0    1.25e+00
2006 10 19  2000    54027   72000      0    1.71e+00    0    1.21e+00
2006 10 19  2005    54027   72300      0    1.76e+00    0    1.23e+00
2006 10 19  2010    54027   72600      0    1.75e+00    0    1.23e+00
2006 10 19  2015    54027   72900      0    1.79e+00    0    1.25e+00
2006 10 19  2020    54027   73200      0    1.73e+00    0    1.22e+00
2006 10 19  2025    54027   73500      0    1.74e+00    0    1.22e+00
2006 10 19  2030    54027   73800      0    1.75e+00    0    1.22e+00
2006 10 19  2035    54027   74100      0    1.78e+00    0    1.24e+00
2006 10 19  2040    54027   74400      0    1.71e+00    0    1.18e+00
2006 10 19  2045    54027   74700      0    1.73e+00    0    1.19e+00
2006 10 19  2050    54027   75000      0    1.73e+00    0    1.22e+00
2006 10 19  2055    54027   75300      0    1.71e+00    0    1.20e+00
2006 10 19  2100    54027   75600      0    1.73e+00    0    1.21e+00
2006 10 19  2105    54027   75900      0    1.71e+00    0    1.20e+00
2006 10 19  2110    54027   76200      0    1.73e+00    0    1.20e+00
2006 10 19  2115    54027   76500      0    1.72e+00    0    1.20e+00
2006 10 19  2120    54027   76800      9   -1.00e+05    9   -1.00e+05
2006 10 19  2125    54027   77100      9   -1.00e+05    9   -1.00e+05
2006 10 19  2130    54027   77400      9   -1.00e+05    9   -1.00e+05
2006 10 19  2135    54027   77700      9   -1.00e+05    9   -1.00e+05
2006 10 19  2140    54027   78000      9   -1.00e+05    9   -1.00e+05
2006 10 19  2145    54027   78300      9   -1.00e+05    9   -1.00e+05
2006 10 19  2150    54027   78600      9   -1.00e+05    9   -1.00e+05
2006 10 19  2155    54027   78900      9   -1.00e+05    9   -1.00e+05
2006 10 19  2200    54027   79200      9   -1.00e+05    9   -1.00e+05
2006 10 19  2205    54027   79500      9   -1.00e+05    9   -1.00e+05
2006 10 19  2210    54027   79800      9   -1.00e+05    9   -1.00e+05
2006 10 19  2215    54027   80100      9   -1.00e+05    9   -1.00e+05
2006 10 19  2220    54027   80400      0    1.70e+00    0    1.19e+00
2006 10 19  2225    54027   80700      0    1.72e+00    0    1.20e+00
2006 10 19  2230    54027   81000      0    1.75e+00    0    1.23e+00
2006 10 19  2235    54027   81300      0    1.76e+00    0    1.23e+00
2006 10 19  2240    54027   81600      0    1.71e+00    0    1.19e+00
2006 10 19  2245    54027   81900      0    1.73e+00    0    1.21e+00
2006 10 19  2250    54027   82200      0    1.70e+00    0    1.18e+00
2006 10 19  2255    54027   82500      0    1.73e+00    0    1.21e+00
2006 10 19  2300    54027   82800      0    1.76e+00    0    1.24e+00
2006 10 19  2305    54027   83100      0    1.76e+00    0    1.24e+00
2006 10 19  2310    54027   83400      0    1.73e+00    0    1.23e+00
2006 10 19  2315    54027   83700      0    1.77e+00    0    1.24e+00
2006 10 19  2320    54027   84000      0    1.71e+00    0    1.19e+00
2006 10 19  2325    54027   84300      0    1.73e+00    0    1.21e+00
2006 10 19  2330    54027   84600      0    1.76e+00    0    1.22e+00
2006 10 19  2335    54027   84900      0    1.73e+00    0    1.21e+00
2006 10 19  2340    54027   85200      0    1.76e+00    0    1.23e+00
2006 10 19  2345    54027   85500      0    1.73e+00    0    1.23e+00
2006 10 19  2350    54027   85800      0    1.76e+00    0    1.23e+00
2006 10 19  2355    54027   86100      0    1.75e+00    0    1.23e+00
