:Data_list: 20061107_ace_sis_5m.txt
:Created: 2006 Nov 08 0011 UT
# Prepared by the U.S. Dept. of Commerce, NOAA, Space Environment Center.
# Please send comments and suggestions to SEC.Webmaster@noaa.gov 
# 
# Units: proton flux p/cs2-sec-ster
# Status(S): 0 = nominal data, 1 to 8 = bad data record, 9 = no data
# Missing data values: -1.00e+05
# Source: ACE Satellite - Solar Isotope Spectrometer
#
# 5-minute averaged Real-time Integral Flux of High-energy Solar Protons
# 
#                 Modified Seconds
# UT Date   Time   Julian  of the      ---- Integral Proton Flux ----
# YR MO DA  HHMM     Day     Day       S    > 10 MeV    S    > 30 MeV
#--------------------------------------------------------------------
2006 11 07  0000    54046       0      0    1.81e+00    0    1.23e+00
2006 11 07  0005    54046     300      0    1.82e+00    0    1.23e+00
2006 11 07  0010    54046     600      0    1.82e+00    0    1.24e+00
2006 11 07  0015    54046     900      0    1.77e+00    0    1.20e+00
2006 11 07  0020    54046    1200      0    1.79e+00    0    1.22e+00
2006 11 07  0025    54046    1500      0    1.82e+00    0    1.25e+00
2006 11 07  0030    54046    1800      0    1.78e+00    0    1.23e+00
2006 11 07  0035    54046    2100      0    1.79e+00    0    1.22e+00
2006 11 07  0040    54046    2400      0    1.79e+00    0    1.22e+00
2006 11 07  0045    54046    2700      0    1.78e+00    0    1.21e+00
2006 11 07  0050    54046    3000      0    1.80e+00    0    1.23e+00
2006 11 07  0055    54046    3300      0    1.80e+00    0    1.23e+00
2006 11 07  0100    54046    3600      0    1.77e+00    0    1.21e+00
2006 11 07  0105    54046    3900      0    1.76e+00    0    1.20e+00
2006 11 07  0110    54046    4200      0    1.78e+00    0    1.21e+00
2006 11 07  0115    54046    4500      0    1.82e+00    0    1.24e+00
2006 11 07  0120    54046    4800      0    1.78e+00    0    1.21e+00
2006 11 07  0125    54046    5100      0    1.72e+00    0    1.17e+00
2006 11 07  0130    54046    5400      0    1.78e+00    0    1.21e+00
2006 11 07  0135    54046    5700      0    1.85e+00    0    1.27e+00
2006 11 07  0140    54046    6000      0    1.79e+00    0    1.21e+00
2006 11 07  0145    54046    6300      0    1.76e+00    0    1.21e+00
2006 11 07  0150    54046    6600      0    1.79e+00    0    1.23e+00
2006 11 07  0155    54046    6900      0    1.81e+00    0    1.24e+00
2006 11 07  0200    54046    7200      0    1.82e+00    0    1.25e+00
2006 11 07  0205    54046    7500      0    1.78e+00    0    1.21e+00
2006 11 07  0210    54046    7800      0    1.75e+00    0    1.19e+00
2006 11 07  0215    54046    8100      0    1.75e+00    0    1.20e+00
2006 11 07  0220    54046    8400      0    1.74e+00    0    1.19e+00
2006 11 07  0225    54046    8700      0    1.80e+00    0    1.24e+00
2006 11 07  0230    54046    9000      0    1.77e+00    0    1.22e+00
2006 11 07  0235    54046    9300      0    1.77e+00    0    1.21e+00
2006 11 07  0240    54046    9600      0    1.77e+00    0    1.21e+00
2006 11 07  0245    54046    9900      0    1.80e+00    0    1.23e+00
2006 11 07  0250    54046   10200      0    1.78e+00    0    1.23e+00
2006 11 07  0255    54046   10500      0    1.75e+00    0    1.19e+00
2006 11 07  0300    54046   10800      0    1.84e+00    0    1.27e+00
2006 11 07  0305    54046   11100      0    1.80e+00    0    1.23e+00
2006 11 07  0310    54046   11400      0    1.80e+00    0    1.23e+00
2006 11 07  0315    54046   11700      0    1.79e+00    0    1.21e+00
2006 11 07  0320    54046   12000      0    1.79e+00    0    1.24e+00
2006 11 07  0325    54046   12300      0    1.84e+00    0    1.25e+00
2006 11 07  0330    54046   12600      0    1.76e+00    0    1.21e+00
2006 11 07  0335    54046   12900      0    1.75e+00    0    1.19e+00
2006 11 07  0340    54046   13200      0    1.75e+00    0    1.20e+00
2006 11 07  0345    54046   13500      0    1.78e+00    0    1.22e+00
2006 11 07  0350    54046   13800      0    1.78e+00    0    1.22e+00
2006 11 07  0355    54046   14100      0    1.80e+00    0    1.25e+00
2006 11 07  0400    54046   14400      0    1.81e+00    0    1.24e+00
2006 11 07  0405    54046   14700      0    1.83e+00    0    1.27e+00
2006 11 07  0410    54046   15000      0    1.76e+00    0    1.20e+00
2006 11 07  0415    54046   15300      0    1.79e+00    0    1.23e+00
2006 11 07  0420    54046   15600      0    1.80e+00    0    1.25e+00
2006 11 07  0425    54046   15900      0    1.79e+00    0    1.22e+00
2006 11 07  0430    54046   16200      0    1.77e+00    0    1.23e+00
2006 11 07  0435    54046   16500      0    1.77e+00    0    1.23e+00
2006 11 07  0440    54046   16800      0    1.77e+00    0    1.22e+00
2006 11 07  0445    54046   17100      0    1.76e+00    0    1.21e+00
2006 11 07  0450    54046   17400      0    1.76e+00    0    1.22e+00
2006 11 07  0455    54046   17700      0    1.76e+00    0    1.20e+00
2006 11 07  0500    54046   18000      0    1.79e+00    0    1.23e+00
2006 11 07  0505    54046   18300      0    1.77e+00    0    1.23e+00
2006 11 07  0510    54046   18600      0    1.76e+00    0    1.21e+00
2006 11 07  0515    54046   18900      0    1.77e+00    0    1.20e+00
2006 11 07  0520    54046   19200      0    1.79e+00    0    1.23e+00
2006 11 07  0525    54046   19500      0    1.76e+00    0    1.21e+00
2006 11 07  0530    54046   19800      0    1.78e+00    0    1.23e+00
2006 11 07  0535    54046   20100      0    1.76e+00    0    1.20e+00
2006 11 07  0540    54046   20400      0    1.80e+00    0    1.23e+00
2006 11 07  0545    54046   20700      0    1.78e+00    0    1.21e+00
2006 11 07  0550    54046   21000      0    1.79e+00    0    1.23e+00
2006 11 07  0555    54046   21300      0    1.78e+00    0    1.22e+00
2006 11 07  0600    54046   21600      0    1.77e+00    0    1.21e+00
2006 11 07  0605    54046   21900      0    1.74e+00    0    1.21e+00
2006 11 07  0610    54046   22200      0    1.76e+00    0    1.23e+00
2006 11 07  0615    54046   22500      0    1.78e+00    0    1.22e+00
2006 11 07  0620    54046   22800      0    1.73e+00    0    1.19e+00
2006 11 07  0625    54046   23100      0    1.78e+00    0    1.24e+00
2006 11 07  0630    54046   23400      0    1.75e+00    0    1.21e+00
2006 11 07  0635    54046   23700      0    1.79e+00    0    1.24e+00
2006 11 07  0640    54046   24000      0    1.78e+00    0    1.23e+00
2006 11 07  0645    54046   24300      0    1.80e+00    0    1.25e+00
2006 11 07  0650    54046   24600      0    1.76e+00    0    1.22e+00
2006 11 07  0655    54046   24900      0    1.77e+00    0    1.22e+00
2006 11 07  0700    54046   25200      0    1.77e+00    0    1.21e+00
2006 11 07  0705    54046   25500      0    1.75e+00    0    1.21e+00
2006 11 07  0710    54046   25800      0    1.77e+00    0    1.23e+00
2006 11 07  0715    54046   26100      0    1.78e+00    0    1.22e+00
2006 11 07  0720    54046   26400      0    1.80e+00    0    1.23e+00
2006 11 07  0725    54046   26700      0    1.78e+00    0    1.22e+00
2006 11 07  0730    54046   27000      0    1.79e+00    0    1.24e+00
2006 11 07  0735    54046   27300      0    1.79e+00    0    1.23e+00
2006 11 07  0740    54046   27600      0    1.76e+00    0    1.22e+00
2006 11 07  0745    54046   27900      0    1.79e+00    0    1.23e+00
2006 11 07  0750    54046   28200      0    1.74e+00    0    1.20e+00
2006 11 07  0755    54046   28500      0    1.79e+00    0    1.24e+00
2006 11 07  0800    54046   28800      0    1.76e+00    0    1.21e+00
2006 11 07  0805    54046   29100      0    1.75e+00    0    1.20e+00
2006 11 07  0810    54046   29400      0    1.75e+00    0    1.21e+00
2006 11 07  0815    54046   29700      0    1.79e+00    0    1.24e+00
2006 11 07  0820    54046   30000      0    1.82e+00    0    1.25e+00
2006 11 07  0825    54046   30300      0    1.75e+00    0    1.21e+00
2006 11 07  0830    54046   30600      0    1.75e+00    0    1.22e+00
2006 11 07  0835    54046   30900      0    1.77e+00    0    1.24e+00
2006 11 07  0840    54046   31200      0    1.79e+00    0    1.24e+00
2006 11 07  0845    54046   31500      0    1.74e+00    0    1.21e+00
2006 11 07  0850    54046   31800      0    1.77e+00    0    1.22e+00
2006 11 07  0855    54046   32100      0    1.78e+00    0    1.23e+00
2006 11 07  0900    54046   32400      0    1.79e+00    0    1.23e+00
2006 11 07  0905    54046   32700      0    1.76e+00    0    1.21e+00
2006 11 07  0910    54046   33000      0    1.77e+00    0    1.24e+00
2006 11 07  0915    54046   33300      0    1.75e+00    0    1.20e+00
2006 11 07  0920    54046   33600      0    1.77e+00    0    1.22e+00
2006 11 07  0925    54046   33900      0    1.76e+00    0    1.21e+00
2006 11 07  0930    54046   34200      0    1.73e+00    0    1.18e+00
2006 11 07  0935    54046   34500      0    1.76e+00    0    1.22e+00
2006 11 07  0940    54046   34800      0    1.80e+00    0    1.24e+00
2006 11 07  0945    54046   35100      0    1.81e+00    0    1.24e+00
2006 11 07  0950    54046   35400      0    1.75e+00    0    1.22e+00
2006 11 07  0955    54046   35700      0    1.77e+00    0    1.23e+00
2006 11 07  1000    54046   36000      0    1.78e+00    0    1.24e+00
2006 11 07  1005    54046   36300      0    1.77e+00    0    1.22e+00
2006 11 07  1010    54046   36600      0    1.81e+00    0    1.26e+00
2006 11 07  1015    54046   36900      0    1.78e+00    0    1.23e+00
2006 11 07  1020    54046   37200      0    1.75e+00    0    1.21e+00
2006 11 07  1025    54046   37500      0    1.66e+00    0    1.14e+00
2006 11 07  1030    54046   37800      0    1.76e+00    0    1.23e+00
2006 11 07  1035    54046   38100      0    1.80e+00    0    1.25e+00
2006 11 07  1040    54046   38400      0    1.76e+00    0    1.22e+00
2006 11 07  1045    54046   38700      0    1.77e+00    0    1.24e+00
2006 11 07  1050    54046   39000      0    1.75e+00    0    1.22e+00
2006 11 07  1055    54046   39300      0    1.76e+00    0    1.21e+00
2006 11 07  1100    54046   39600      0    1.76e+00    0    1.23e+00
2006 11 07  1105    54046   39900      0    1.77e+00    0    1.23e+00
2006 11 07  1110    54046   40200      0    1.75e+00    0    1.22e+00
2006 11 07  1115    54046   40500      0    1.74e+00    0    1.21e+00
2006 11 07  1120    54046   40800      0    1.77e+00    0    1.24e+00
2006 11 07  1125    54046   41100      0    1.76e+00    0    1.23e+00
2006 11 07  1130    54046   41400      0    1.80e+00    0    1.25e+00
2006 11 07  1135    54046   41700      0    1.76e+00    0    1.23e+00
2006 11 07  1140    54046   42000      0    1.76e+00    0    1.22e+00
2006 11 07  1145    54046   42300      0    1.79e+00    0    1.23e+00
2006 11 07  1150    54046   42600      0    1.73e+00    0    1.20e+00
2006 11 07  1155    54046   42900      0    1.73e+00    0    1.20e+00
2006 11 07  1200    54046   43200      0    1.75e+00    0    1.22e+00
2006 11 07  1205    54046   43500      0    1.78e+00    0    1.23e+00
2006 11 07  1210    54046   43800      0    1.75e+00    0    1.21e+00
2006 11 07  1215    54046   44100      0    1.75e+00    0    1.20e+00
2006 11 07  1220    54046   44400      0    1.80e+00    0    1.25e+00
2006 11 07  1225    54046   44700      0    1.76e+00    0    1.22e+00
2006 11 07  1230    54046   45000      0    1.75e+00    0    1.21e+00
2006 11 07  1235    54046   45300      0    1.78e+00    0    1.24e+00
2006 11 07  1240    54046   45600      0    1.78e+00    0    1.25e+00
2006 11 07  1245    54046   45900      0    1.78e+00    0    1.23e+00
2006 11 07  1250    54046   46200      0    1.75e+00    0    1.22e+00
2006 11 07  1255    54046   46500      0    1.77e+00    0    1.22e+00
2006 11 07  1300    54046   46800      0    1.79e+00    0    1.24e+00
2006 11 07  1305    54046   47100      0    1.74e+00    0    1.21e+00
2006 11 07  1310    54046   47400      0    1.81e+00    0    1.26e+00
2006 11 07  1315    54046   47700      0    1.76e+00    0    1.23e+00
2006 11 07  1320    54046   48000      0    1.78e+00    0    1.23e+00
2006 11 07  1325    54046   48300      0    1.75e+00    0    1.21e+00
2006 11 07  1330    54046   48600      0    1.82e+00    0    1.25e+00
2006 11 07  1335    54046   48900      0    1.78e+00    0    1.22e+00
2006 11 07  1340    54046   49200      0    1.72e+00    0    1.20e+00
2006 11 07  1345    54046   49500      0    1.80e+00    0    1.25e+00
2006 11 07  1350    54046   49800      0    1.80e+00    0    1.26e+00
2006 11 07  1355    54046   50100      0    1.78e+00    0    1.24e+00
2006 11 07  1400    54046   50400      0    1.75e+00    0    1.22e+00
2006 11 07  1405    54046   50700      0    1.76e+00    0    1.22e+00
2006 11 07  1410    54046   51000      0    1.81e+00    0    1.26e+00
2006 11 07  1415    54046   51300      0    1.79e+00    0    1.23e+00
2006 11 07  1420    54046   51600      0    1.80e+00    0    1.24e+00
2006 11 07  1425    54046   51900      0    1.79e+00    0    1.24e+00
2006 11 07  1430    54046   52200      0    1.81e+00    0    1.25e+00
2006 11 07  1435    54046   52500      0    1.77e+00    0    1.23e+00
2006 11 07  1440    54046   52800      0    1.81e+00    0    1.26e+00
2006 11 07  1445    54046   53100      0    1.82e+00    0    1.25e+00
2006 11 07  1450    54046   53400      0    1.78e+00    0    1.23e+00
2006 11 07  1455    54046   53700      0    1.79e+00    0    1.23e+00
2006 11 07  1500    54046   54000      0    1.83e+00    0    1.26e+00
2006 11 07  1505    54046   54300      0    1.78e+00    0    1.23e+00
2006 11 07  1510    54046   54600      0    1.79e+00    0    1.23e+00
2006 11 07  1515    54046   54900      0    1.80e+00    0    1.24e+00
2006 11 07  1520    54046   55200      0    1.81e+00    0    1.25e+00
2006 11 07  1525    54046   55500      0    1.77e+00    0    1.24e+00
2006 11 07  1530    54046   55800      0    1.79e+00    0    1.23e+00
2006 11 07  1535    54046   56100      0    1.82e+00    0    1.27e+00
2006 11 07  1540    54046   56400      0    1.81e+00    0    1.24e+00
2006 11 07  1545    54046   56700      0    1.81e+00    0    1.26e+00
2006 11 07  1550    54046   57000      0    1.78e+00    0    1.23e+00
2006 11 07  1555    54046   57300      0    1.85e+00    0    1.28e+00
2006 11 07  1600    54046   57600      0    1.77e+00    0    1.22e+00
2006 11 07  1605    54046   57900      0    1.80e+00    0    1.24e+00
2006 11 07  1610    54046   58200      0    1.81e+00    0    1.25e+00
2006 11 07  1615    54046   58500      0    1.80e+00    0    1.25e+00
2006 11 07  1620    54046   58800      0    1.80e+00    0    1.24e+00
2006 11 07  1625    54046   59100      0    1.82e+00    0    1.25e+00
2006 11 07  1630    54046   59400      0    1.78e+00    0    1.22e+00
2006 11 07  1635    54046   59700      0    1.77e+00    0    1.21e+00
2006 11 07  1640    54046   60000      0    1.76e+00    0    1.22e+00
2006 11 07  1645    54046   60300      0    1.78e+00    0    1.22e+00
2006 11 07  1650    54046   60600      0    1.81e+00    0    1.26e+00
2006 11 07  1655    54046   60900      0    1.81e+00    0    1.24e+00
2006 11 07  1700    54046   61200      0    1.79e+00    0    1.24e+00
2006 11 07  1705    54046   61500      0    1.76e+00    0    1.21e+00
2006 11 07  1710    54046   61800      0    1.79e+00    0    1.23e+00
2006 11 07  1715    54046   62100      0    1.81e+00    0    1.26e+00
2006 11 07  1720    54046   62400      0    1.78e+00    0    1.23e+00
2006 11 07  1725    54046   62700      0    1.78e+00    0    1.24e+00
2006 11 07  1730    54046   63000      0    1.74e+00    0    1.21e+00
2006 11 07  1735    54046   63300      0    1.80e+00    0    1.24e+00
2006 11 07  1740    54046   63600      0    1.78e+00    0    1.23e+00
2006 11 07  1745    54046   63900      0    1.76e+00    0    1.22e+00
2006 11 07  1750    54046   64200      0    1.77e+00    0    1.21e+00
2006 11 07  1755    54046   64500      0    1.76e+00    0    1.22e+00
2006 11 07  1800    54046   64800      0    1.80e+00    0    1.23e+00
2006 11 07  1805    54046   65100      0    1.78e+00    0    1.23e+00
2006 11 07  1810    54046   65400      0    1.78e+00    0    1.24e+00
2006 11 07  1815    54046   65700      0    1.78e+00    0    1.23e+00
2006 11 07  1820    54046   66000      0    1.77e+00    0    1.22e+00
2006 11 07  1825    54046   66300      0    1.77e+00    0    1.22e+00
2006 11 07  1830    54046   66600      0    1.78e+00    0    1.23e+00
2006 11 07  1835    54046   66900      0    1.83e+00    0    1.27e+00
2006 11 07  1840    54046   67200      0    1.80e+00    0    1.25e+00
2006 11 07  1845    54046   67500      0    1.74e+00    0    1.19e+00
2006 11 07  1850    54046   67800      0    1.77e+00    0    1.22e+00
2006 11 07  1855    54046   68100      0    1.79e+00    0    1.24e+00
2006 11 07  1900    54046   68400      0    1.78e+00    0    1.23e+00
2006 11 07  1905    54046   68700      0    1.79e+00    0    1.23e+00
2006 11 07  1910    54046   69000      0    1.80e+00    0    1.25e+00
2006 11 07  1915    54046   69300      0    1.80e+00    0    1.25e+00
2006 11 07  1920    54046   69600      0    1.81e+00    0    1.23e+00
2006 11 07  1925    54046   69900      0    1.81e+00    0    1.26e+00
2006 11 07  1930    54046   70200      0    1.81e+00    0    1.25e+00
2006 11 07  1935    54046   70500      0    1.81e+00    0    1.24e+00
2006 11 07  1940    54046   70800      0    1.77e+00    0    1.23e+00
2006 11 07  1945    54046   71100      0    1.79e+00    0    1.25e+00
2006 11 07  1950    54046   71400      0    1.80e+00    0    1.23e+00
2006 11 07  1955    54046   71700      0    1.82e+00    0    1.25e+00
2006 11 07  2000    54046   72000      0    1.76e+00    0    1.21e+00
2006 11 07  2005    54046   72300      0    1.86e+00    0    1.29e+00
2006 11 07  2010    54046   72600      0    1.77e+00    0    1.21e+00
2006 11 07  2015    54046   72900      0    1.76e+00    0    1.21e+00
2006 11 07  2020    54046   73200      0    1.77e+00    0    1.22e+00
2006 11 07  2025    54046   73500      0    1.76e+00    0    1.21e+00
2006 11 07  2030    54046   73800      0    1.76e+00    0    1.21e+00
2006 11 07  2035    54046   74100      0    1.78e+00    0    1.23e+00
2006 11 07  2040    54046   74400      0    1.79e+00    0    1.25e+00
2006 11 07  2045    54046   74700      0    1.79e+00    0    1.25e+00
2006 11 07  2050    54046   75000      0    1.77e+00    0    1.21e+00
2006 11 07  2055    54046   75300      0    1.78e+00    0    1.25e+00
2006 11 07  2100    54046   75600      9   -1.00e+05    9   -1.00e+05
2006 11 07  2105    54046   75900      9   -1.00e+05    9   -1.00e+05
2006 11 07  2110    54046   76200      9   -1.00e+05    9   -1.00e+05
2006 11 07  2115    54046   76500      9   -1.00e+05    9   -1.00e+05
2006 11 07  2120    54046   76800      9   -1.00e+05    9   -1.00e+05
2006 11 07  2125    54046   77100      0    1.80e+00    0    1.25e+00
2006 11 07  2130    54046   77400      0    1.83e+00    0    1.27e+00
2006 11 07  2135    54046   77700      0    1.77e+00    0    1.22e+00
2006 11 07  2140    54046   78000      0    1.73e+00    0    1.20e+00
2006 11 07  2145    54046   78300      0    1.76e+00    0    1.22e+00
2006 11 07  2150    54046   78600      0    1.76e+00    0    1.22e+00
2006 11 07  2155    54046   78900      0    1.76e+00    0    1.24e+00
2006 11 07  2200    54046   79200      0    1.80e+00    0    1.25e+00
2006 11 07  2205    54046   79500      0    1.77e+00    0    1.22e+00
2006 11 07  2210    54046   79800      0    1.73e+00    0    1.19e+00
2006 11 07  2215    54046   80100      0    1.78e+00    0    1.23e+00
2006 11 07  2220    54046   80400      0    1.75e+00    0    1.22e+00
2006 11 07  2225    54046   80700      0    1.73e+00    0    1.21e+00
2006 11 07  2230    54046   81000      9   -1.00e+05    9   -1.00e+05
2006 11 07  2235    54046   81300      0    1.76e+00    0    1.22e+00
2006 11 07  2240    54046   81600      0    1.79e+00    0    1.25e+00
2006 11 07  2245    54046   81900      0    1.79e+00    0    1.25e+00
2006 11 07  2250    54046   82200      0    1.76e+00    0    1.24e+00
2006 11 07  2255    54046   82500      0    1.78e+00    0    1.22e+00
2006 11 07  2300    54046   82800      0    1.78e+00    0    1.22e+00
2006 11 07  2305    54046   83100      0    1.78e+00    0    1.24e+00
2006 11 07  2310    54046   83400      0    1.81e+00    0    1.26e+00
2006 11 07  2315    54046   83700      0    1.79e+00    0    1.25e+00
2006 11 07  2320    54046   84000      0    1.79e+00    0    1.24e+00
2006 11 07  2325    54046   84300      0    1.81e+00    0    1.26e+00
2006 11 07  2330    54046   84600      0    1.77e+00    0    1.23e+00
2006 11 07  2335    54046   84900      0    1.79e+00    0    1.23e+00
2006 11 07  2340    54046   85200      0    1.81e+00    0    1.27e+00
2006 11 07  2345    54046   85500      0    1.73e+00    0    1.21e+00
2006 11 07  2350    54046   85800      0    1.76e+00    0    1.23e+00
2006 11 07  2355    54046   86100      0    1.78e+00    0    1.24e+00
