:Data_list: 20060422_ace_sis_5m.txt
:Created: 2006 Apr 23 0011 UT
# Prepared by the U.S. Dept. of Commerce, NOAA, Space Environment Center.
# Please send comments and suggestions to SEC.Webmaster@noaa.gov 
# 
# Units: proton flux p/cs2-sec-ster
# Status(S): 0 = nominal data, 1 to 8 = bad data record, 9 = no data
# Missing data values: -1.00e+05
# Source: ACE Satellite - Solar Isotope Spectrometer
#
# 5-minute averaged Real-time Integral Flux of High-energy Solar Protons
# 
#                 Modified Seconds
# UT Date   Time   Julian  of the      ---- Integral Proton Flux ----
# YR MO DA  HHMM     Day     Day       S    > 10 MeV    S    > 30 MeV
#--------------------------------------------------------------------
2006 04 22  0000    53847       0      0    1.59e+00    0    1.12e+00
2006 04 22  0005    53847     300      0    1.58e+00    0    1.10e+00
2006 04 22  0010    53847     600      0    1.56e+00    0    1.09e+00
2006 04 22  0015    53847     900      0    1.57e+00    0    1.10e+00
2006 04 22  0020    53847    1200      0    1.59e+00    0    1.12e+00
2006 04 22  0025    53847    1500      0    1.62e+00    0    1.14e+00
2006 04 22  0030    53847    1800      0    1.56e+00    0    1.09e+00
2006 04 22  0035    53847    2100      0    1.57e+00    0    1.10e+00
2006 04 22  0040    53847    2400      0    1.59e+00    0    1.12e+00
2006 04 22  0045    53847    2700      0    1.59e+00    0    1.11e+00
2006 04 22  0050    53847    3000      0    1.54e+00    0    1.08e+00
2006 04 22  0055    53847    3300      0    1.56e+00    0    1.09e+00
2006 04 22  0100    53847    3600      0    1.59e+00    0    1.11e+00
2006 04 22  0105    53847    3900      0    1.64e+00    0    1.15e+00
2006 04 22  0110    53847    4200      0    1.56e+00    0    1.10e+00
2006 04 22  0115    53847    4500      0    1.60e+00    0    1.13e+00
2006 04 22  0120    53847    4800      0    1.59e+00    0    1.11e+00
2006 04 22  0125    53847    5100      0    1.58e+00    0    1.11e+00
2006 04 22  0130    53847    5400      0    1.57e+00    0    1.09e+00
2006 04 22  0135    53847    5700      0    1.62e+00    0    1.13e+00
2006 04 22  0140    53847    6000      0    1.60e+00    0    1.13e+00
2006 04 22  0145    53847    6300      0    1.60e+00    0    1.13e+00
2006 04 22  0150    53847    6600      0    1.60e+00    0    1.12e+00
2006 04 22  0155    53847    6900      0    1.60e+00    0    1.13e+00
2006 04 22  0200    53847    7200      0    1.57e+00    0    1.10e+00
2006 04 22  0205    53847    7500      0    1.56e+00    0    1.09e+00
2006 04 22  0210    53847    7800      0    1.60e+00    0    1.13e+00
2006 04 22  0215    53847    8100      0    1.61e+00    0    1.13e+00
2006 04 22  0220    53847    8400      0    1.56e+00    0    1.09e+00
2006 04 22  0225    53847    8700      0    1.60e+00    0    1.13e+00
2006 04 22  0230    53847    9000      0    1.56e+00    0    1.08e+00
2006 04 22  0235    53847    9300      0    1.61e+00    0    1.13e+00
2006 04 22  0240    53847    9600      0    1.59e+00    0    1.12e+00
2006 04 22  0245    53847    9900      0    1.58e+00    0    1.11e+00
2006 04 22  0250    53847   10200      0    1.61e+00    0    1.13e+00
2006 04 22  0255    53847   10500      0    1.60e+00    0    1.13e+00
2006 04 22  0300    53847   10800      0    1.58e+00    0    1.11e+00
2006 04 22  0305    53847   11100      0    1.56e+00    0    1.08e+00
2006 04 22  0310    53847   11400      0    1.59e+00    0    1.11e+00
2006 04 22  0315    53847   11700      0    1.57e+00    0    1.10e+00
2006 04 22  0320    53847   12000      0    1.61e+00    0    1.13e+00
2006 04 22  0325    53847   12300      0    1.58e+00    0    1.11e+00
2006 04 22  0330    53847   12600      0    1.55e+00    0    1.08e+00
2006 04 22  0335    53847   12900      0    1.60e+00    0    1.13e+00
2006 04 22  0340    53847   13200      0    1.59e+00    0    1.12e+00
2006 04 22  0345    53847   13500      0    1.60e+00    0    1.11e+00
2006 04 22  0350    53847   13800      0    1.59e+00    0    1.12e+00
2006 04 22  0355    53847   14100      0    1.59e+00    0    1.11e+00
2006 04 22  0400    53847   14400      0    1.58e+00    0    1.12e+00
2006 04 22  0405    53847   14700      0    1.56e+00    0    1.10e+00
2006 04 22  0410    53847   15000      0    1.63e+00    0    1.15e+00
2006 04 22  0415    53847   15300      0    1.47e+00    0    1.04e+00
2006 04 22  0420    53847   15600      0    1.60e+00    0    1.12e+00
2006 04 22  0425    53847   15900      0    1.61e+00    0    1.13e+00
2006 04 22  0430    53847   16200      0    1.56e+00    0    1.09e+00
2006 04 22  0435    53847   16500      0    1.60e+00    0    1.11e+00
2006 04 22  0440    53847   16800      0    1.60e+00    0    1.13e+00
2006 04 22  0445    53847   17100      0    1.60e+00    0    1.13e+00
2006 04 22  0450    53847   17400      0    1.62e+00    0    1.14e+00
2006 04 22  0455    53847   17700      0    1.56e+00    0    1.10e+00
2006 04 22  0500    53847   18000      0    1.61e+00    0    1.13e+00
2006 04 22  0505    53847   18300      0    1.61e+00    0    1.13e+00
2006 04 22  0510    53847   18600      0    1.60e+00    0    1.11e+00
2006 04 22  0515    53847   18900      0    1.61e+00    0    1.14e+00
2006 04 22  0520    53847   19200      0    1.60e+00    0    1.11e+00
2006 04 22  0525    53847   19500      0    1.61e+00    0    1.12e+00
2006 04 22  0530    53847   19800      0    1.59e+00    0    1.09e+00
2006 04 22  0535    53847   20100      0    1.59e+00    0    1.11e+00
2006 04 22  0540    53847   20400      0    1.62e+00    0    1.14e+00
2006 04 22  0545    53847   20700      0    1.62e+00    0    1.13e+00
2006 04 22  0550    53847   21000      0    1.60e+00    0    1.13e+00
2006 04 22  0555    53847   21300      0    1.59e+00    0    1.11e+00
2006 04 22  0600    53847   21600      0    1.58e+00    0    1.11e+00
2006 04 22  0605    53847   21900      0    1.61e+00    0    1.13e+00
2006 04 22  0610    53847   22200      0    1.63e+00    0    1.14e+00
2006 04 22  0615    53847   22500      0    1.59e+00    0    1.12e+00
2006 04 22  0620    53847   22800      0    1.59e+00    0    1.11e+00
2006 04 22  0625    53847   23100      0    1.60e+00    0    1.12e+00
2006 04 22  0630    53847   23400      0    1.54e+00    0    1.09e+00
2006 04 22  0635    53847   23700      0    1.61e+00    0    1.14e+00
2006 04 22  0640    53847   24000      0    1.60e+00    0    1.12e+00
2006 04 22  0645    53847   24300      0    1.58e+00    0    1.11e+00
2006 04 22  0650    53847   24600      0    1.58e+00    0    1.11e+00
2006 04 22  0655    53847   24900      0    1.58e+00    0    1.11e+00
2006 04 22  0700    53847   25200      0    1.58e+00    0    1.10e+00
2006 04 22  0705    53847   25500      0    1.62e+00    0    1.13e+00
2006 04 22  0710    53847   25800      0    1.62e+00    0    1.13e+00
2006 04 22  0715    53847   26100      0    1.64e+00    0    1.17e+00
2006 04 22  0720    53847   26400      0    1.60e+00    0    1.12e+00
2006 04 22  0725    53847   26700      0    1.62e+00    0    1.14e+00
2006 04 22  0730    53847   27000      0    1.60e+00    0    1.12e+00
2006 04 22  0735    53847   27300      0    1.61e+00    0    1.14e+00
2006 04 22  0740    53847   27600      0    1.58e+00    0    1.10e+00
2006 04 22  0745    53847   27900      0    1.58e+00    0    1.11e+00
2006 04 22  0750    53847   28200      0    1.58e+00    0    1.12e+00
2006 04 22  0755    53847   28500      0    1.60e+00    0    1.11e+00
2006 04 22  0800    53847   28800      0    1.61e+00    0    1.13e+00
2006 04 22  0805    53847   29100      0    1.60e+00    0    1.12e+00
2006 04 22  0810    53847   29400      0    1.60e+00    0    1.13e+00
2006 04 22  0815    53847   29700      0    1.59e+00    0    1.11e+00
2006 04 22  0820    53847   30000      0    1.57e+00    0    1.11e+00
2006 04 22  0825    53847   30300      0    1.61e+00    0    1.13e+00
2006 04 22  0830    53847   30600      0    1.62e+00    0    1.14e+00
2006 04 22  0835    53847   30900      0    1.59e+00    0    1.12e+00
2006 04 22  0840    53847   31200      0    1.57e+00    0    1.10e+00
2006 04 22  0845    53847   31500      0    1.58e+00    0    1.09e+00
2006 04 22  0850    53847   31800      0    1.55e+00    0    1.09e+00
2006 04 22  0855    53847   32100      0    1.59e+00    0    1.12e+00
2006 04 22  0900    53847   32400      0    1.55e+00    0    1.09e+00
2006 04 22  0905    53847   32700      0    1.60e+00    0    1.12e+00
2006 04 22  0910    53847   33000      0    1.57e+00    0    1.11e+00
2006 04 22  0915    53847   33300      0    1.58e+00    0    1.11e+00
2006 04 22  0920    53847   33600      0    1.57e+00    0    1.10e+00
2006 04 22  0925    53847   33900      0    1.59e+00    0    1.11e+00
2006 04 22  0930    53847   34200      0    1.58e+00    0    1.11e+00
2006 04 22  0935    53847   34500      0    1.56e+00    0    1.09e+00
2006 04 22  0940    53847   34800      0    1.56e+00    0    1.10e+00
2006 04 22  0945    53847   35100      0    1.58e+00    0    1.12e+00
2006 04 22  0950    53847   35400      0    1.57e+00    0    1.09e+00
2006 04 22  0955    53847   35700      0    1.55e+00    0    1.08e+00
2006 04 22  1000    53847   36000      0    1.63e+00    0    1.14e+00
2006 04 22  1005    53847   36300      0    1.59e+00    0    1.11e+00
2006 04 22  1010    53847   36600      0    1.60e+00    0    1.11e+00
2006 04 22  1015    53847   36900      0    1.60e+00    0    1.12e+00
2006 04 22  1020    53847   37200      0    1.57e+00    0    1.10e+00
2006 04 22  1025    53847   37500      0    1.54e+00    0    1.08e+00
2006 04 22  1030    53847   37800      0    1.58e+00    0    1.11e+00
2006 04 22  1035    53847   38100      0    1.56e+00    0    1.09e+00
2006 04 22  1040    53847   38400      0    1.57e+00    0    1.11e+00
2006 04 22  1045    53847   38700      0    1.55e+00    0    1.08e+00
2006 04 22  1050    53847   39000      0    1.55e+00    0    1.09e+00
2006 04 22  1055    53847   39300      0    1.58e+00    0    1.11e+00
2006 04 22  1100    53847   39600      0    1.60e+00    0    1.12e+00
2006 04 22  1105    53847   39900      0    1.59e+00    0    1.11e+00
2006 04 22  1110    53847   40200      0    1.56e+00    0    1.09e+00
2006 04 22  1115    53847   40500      0    1.59e+00    0    1.12e+00
2006 04 22  1120    53847   40800      0    1.56e+00    0    1.09e+00
2006 04 22  1125    53847   41100      0    1.59e+00    0    1.12e+00
2006 04 22  1130    53847   41400      0    1.58e+00    0    1.12e+00
2006 04 22  1135    53847   41700      0    1.56e+00    0    1.09e+00
2006 04 22  1140    53847   42000      0    1.58e+00    0    1.11e+00
2006 04 22  1145    53847   42300      0    1.57e+00    0    1.10e+00
2006 04 22  1150    53847   42600      0    1.59e+00    0    1.12e+00
2006 04 22  1155    53847   42900      0    1.57e+00    0    1.09e+00
2006 04 22  1200    53847   43200      0    1.57e+00    0    1.10e+00
2006 04 22  1205    53847   43500      0    1.62e+00    0    1.14e+00
2006 04 22  1210    53847   43800      0    1.63e+00    0    1.15e+00
2006 04 22  1215    53847   44100      0    1.57e+00    0    1.10e+00
2006 04 22  1220    53847   44400      0    1.58e+00    0    1.10e+00
2006 04 22  1225    53847   44700      0    1.64e+00    0    1.15e+00
2006 04 22  1230    53847   45000      0    1.57e+00    0    1.10e+00
2006 04 22  1235    53847   45300      0    1.59e+00    0    1.11e+00
2006 04 22  1240    53847   45600      0    1.57e+00    0    1.10e+00
2006 04 22  1245    53847   45900      0    1.60e+00    0    1.12e+00
2006 04 22  1250    53847   46200      0    1.56e+00    0    1.09e+00
2006 04 22  1255    53847   46500      0    1.56e+00    0    1.11e+00
2006 04 22  1300    53847   46800      0    1.56e+00    0    1.10e+00
2006 04 22  1305    53847   47100      0    1.57e+00    0    1.10e+00
2006 04 22  1310    53847   47400      0    1.58e+00    0    1.11e+00
2006 04 22  1315    53847   47700      0    1.57e+00    0    1.10e+00
2006 04 22  1320    53847   48000      0    1.58e+00    0    1.12e+00
2006 04 22  1325    53847   48300      0    1.50e+00    0    1.03e+00
2006 04 22  1330    53847   48600      0    1.57e+00    0    1.10e+00
2006 04 22  1335    53847   48900      0    1.60e+00    0    1.13e+00
2006 04 22  1340    53847   49200      0    1.60e+00    0    1.13e+00
2006 04 22  1345    53847   49500      0    1.56e+00    0    1.09e+00
2006 04 22  1350    53847   49800      0    1.59e+00    0    1.14e+00
2006 04 22  1355    53847   50100      0    1.58e+00    0    1.11e+00
2006 04 22  1400    53847   50400      0    1.56e+00    0    1.09e+00
2006 04 22  1405    53847   50700      0    1.56e+00    0    1.09e+00
2006 04 22  1410    53847   51000      0    1.58e+00    0    1.11e+00
2006 04 22  1415    53847   51300      0    1.55e+00    0    1.09e+00
2006 04 22  1420    53847   51600      0    1.59e+00    0    1.12e+00
2006 04 22  1425    53847   51900      0    1.60e+00    0    1.11e+00
2006 04 22  1430    53847   52200      0    1.61e+00    0    1.13e+00
2006 04 22  1435    53847   52500      0    1.59e+00    0    1.11e+00
2006 04 22  1440    53847   52800      0    1.58e+00    0    1.11e+00
2006 04 22  1445    53847   53100      0    1.58e+00    0    1.11e+00
2006 04 22  1450    53847   53400      0    1.62e+00    0    1.14e+00
2006 04 22  1455    53847   53700      0    1.62e+00    0    1.13e+00
2006 04 22  1500    53847   54000      0    1.57e+00    0    1.10e+00
2006 04 22  1505    53847   54300      0    1.57e+00    0    1.10e+00
2006 04 22  1510    53847   54600      0    1.60e+00    0    1.12e+00
2006 04 22  1515    53847   54900      0    1.56e+00    0    1.10e+00
2006 04 22  1520    53847   55200      0    1.63e+00    0    1.14e+00
2006 04 22  1525    53847   55500      0    1.57e+00    0    1.10e+00
2006 04 22  1530    53847   55800      0    1.58e+00    0    1.10e+00
2006 04 22  1535    53847   56100      0    1.60e+00    0    1.12e+00
2006 04 22  1540    53847   56400      0    1.58e+00    0    1.12e+00
2006 04 22  1545    53847   56700      0    1.59e+00    0    1.12e+00
2006 04 22  1550    53847   57000      0    1.58e+00    0    1.11e+00
2006 04 22  1555    53847   57300      0    1.58e+00    0    1.10e+00
2006 04 22  1600    53847   57600      0    1.61e+00    0    1.13e+00
2006 04 22  1605    53847   57900      0    1.62e+00    0    1.14e+00
2006 04 22  1610    53847   58200      0    1.63e+00    0    1.15e+00
2006 04 22  1615    53847   58500      0    1.55e+00    0    1.10e+00
2006 04 22  1620    53847   58800      0    1.58e+00    0    1.11e+00
2006 04 22  1625    53847   59100      0    1.56e+00    0    1.09e+00
2006 04 22  1630    53847   59400      0    1.59e+00    0    1.11e+00
2006 04 22  1635    53847   59700      0    1.60e+00    0    1.13e+00
2006 04 22  1640    53847   60000      0    1.59e+00    0    1.12e+00
2006 04 22  1645    53847   60300      0    1.59e+00    0    1.11e+00
2006 04 22  1650    53847   60600      0    1.58e+00    0    1.11e+00
2006 04 22  1655    53847   60900      0    1.59e+00    0    1.12e+00
2006 04 22  1700    53847   61200      0    1.59e+00    0    1.12e+00
2006 04 22  1705    53847   61500      0    1.60e+00    0    1.12e+00
2006 04 22  1710    53847   61800      0    1.58e+00    0    1.10e+00
2006 04 22  1715    53847   62100      0    1.61e+00    0    1.14e+00
2006 04 22  1720    53847   62400      0    1.60e+00    0    1.12e+00
2006 04 22  1725    53847   62700      0    1.57e+00    0    1.09e+00
2006 04 22  1730    53847   63000      0    1.57e+00    0    1.10e+00
2006 04 22  1735    53847   63300      0    1.58e+00    0    1.10e+00
2006 04 22  1740    53847   63600      0    1.56e+00    0    1.10e+00
2006 04 22  1745    53847   63900      0    1.56e+00    0    1.08e+00
2006 04 22  1750    53847   64200      0    1.57e+00    0    1.10e+00
2006 04 22  1755    53847   64500      0    1.57e+00    0    1.09e+00
2006 04 22  1800    53847   64800      0    1.56e+00    0    1.10e+00
2006 04 22  1805    53847   65100      0    1.55e+00    0    1.08e+00
2006 04 22  1810    53847   65400      0    1.58e+00    0    1.10e+00
2006 04 22  1815    53847   65700      0    1.59e+00    0    1.12e+00
2006 04 22  1820    53847   66000      0    1.60e+00    0    1.12e+00
2006 04 22  1825    53847   66300      0    1.58e+00    0    1.11e+00
2006 04 22  1830    53847   66600      0    1.57e+00    0    1.10e+00
2006 04 22  1835    53847   66900      0    1.59e+00    0    1.12e+00
2006 04 22  1840    53847   67200      0    1.57e+00    0    1.11e+00
2006 04 22  1845    53847   67500      0    1.59e+00    0    1.12e+00
2006 04 22  1850    53847   67800      0    1.57e+00    0    1.10e+00
2006 04 22  1855    53847   68100      0    1.55e+00    0    1.09e+00
2006 04 22  1900    53847   68400      0    1.62e+00    0    1.14e+00
2006 04 22  1905    53847   68700      0    1.60e+00    0    1.13e+00
2006 04 22  1910    53847   69000      0    1.59e+00    0    1.12e+00
2006 04 22  1915    53847   69300      0    1.58e+00    0    1.11e+00
2006 04 22  1920    53847   69600      0    1.56e+00    0    1.09e+00
2006 04 22  1925    53847   69900      0    1.58e+00    0    1.10e+00
2006 04 22  1930    53847   70200      0    1.56e+00    0    1.10e+00
2006 04 22  1935    53847   70500      0    1.60e+00    0    1.13e+00
2006 04 22  1940    53847   70800      0    1.60e+00    0    1.13e+00
2006 04 22  1945    53847   71100      0    1.55e+00    0    1.08e+00
2006 04 22  1950    53847   71400      0    1.56e+00    0    1.10e+00
2006 04 22  1955    53847   71700      0    1.55e+00    0    1.09e+00
2006 04 22  2000    53847   72000      0    1.58e+00    0    1.11e+00
2006 04 22  2005    53847   72300      0    1.58e+00    0    1.11e+00
2006 04 22  2010    53847   72600      0    1.57e+00    0    1.10e+00
2006 04 22  2015    53847   72900      0    1.59e+00    0    1.11e+00
2006 04 22  2020    53847   73200      0    1.56e+00    0    1.09e+00
2006 04 22  2025    53847   73500      0    1.59e+00    0    1.12e+00
2006 04 22  2030    53847   73800      0    1.60e+00    0    1.14e+00
2006 04 22  2035    53847   74100      0    1.55e+00    0    1.08e+00
2006 04 22  2040    53847   74400      0    1.56e+00    0    1.10e+00
2006 04 22  2045    53847   74700      0    1.57e+00    0    1.10e+00
2006 04 22  2050    53847   75000      0    1.60e+00    0    1.12e+00
2006 04 22  2055    53847   75300      0    1.56e+00    0    1.10e+00
2006 04 22  2100    53847   75600      0    1.59e+00    0    1.11e+00
2006 04 22  2105    53847   75900      0    1.54e+00    0    1.08e+00
2006 04 22  2110    53847   76200      0    1.57e+00    0    1.11e+00
2006 04 22  2115    53847   76500      0    1.56e+00    0    1.09e+00
2006 04 22  2120    53847   76800      0    1.58e+00    0    1.11e+00
2006 04 22  2125    53847   77100      0    1.54e+00    0    1.09e+00
2006 04 22  2130    53847   77400      0    1.56e+00    0    1.08e+00
2006 04 22  2135    53847   77700      0    1.60e+00    0    1.13e+00
2006 04 22  2140    53847   78000      0    1.56e+00    0    1.11e+00
2006 04 22  2145    53847   78300      0    1.60e+00    0    1.12e+00
2006 04 22  2150    53847   78600      0    1.58e+00    0    1.10e+00
2006 04 22  2155    53847   78900      0    1.56e+00    0    1.09e+00
2006 04 22  2200    53847   79200      0    1.56e+00    0    1.09e+00
2006 04 22  2205    53847   79500      0    1.58e+00    0    1.10e+00
2006 04 22  2210    53847   79800      0    1.57e+00    0    1.12e+00
2006 04 22  2215    53847   80100      0    1.56e+00    0    1.10e+00
2006 04 22  2220    53847   80400      0    1.57e+00    0    1.10e+00
2006 04 22  2225    53847   80700      0    1.57e+00    0    1.09e+00
2006 04 22  2230    53847   81000      0    1.55e+00    0    1.08e+00
2006 04 22  2235    53847   81300      0    1.56e+00    0    1.07e+00
2006 04 22  2240    53847   81600      0    1.56e+00    0    1.11e+00
2006 04 22  2245    53847   81900      0    1.56e+00    0    1.10e+00
2006 04 22  2250    53847   82200      0    1.57e+00    0    1.10e+00
2006 04 22  2255    53847   82500      0    1.58e+00    0    1.12e+00
2006 04 22  2300    53847   82800      0    1.56e+00    0    1.10e+00
2006 04 22  2305    53847   83100      0    1.55e+00    0    1.08e+00
2006 04 22  2310    53847   83400      0    1.57e+00    0    1.10e+00
2006 04 22  2315    53847   83700      0    1.57e+00    0    1.11e+00
2006 04 22  2320    53847   84000      0    1.54e+00    0    1.06e+00
2006 04 22  2325    53847   84300      0    1.57e+00    0    1.10e+00
2006 04 22  2330    53847   84600      0    1.59e+00    0    1.12e+00
2006 04 22  2335    53847   84900      0    1.57e+00    0    1.09e+00
2006 04 22  2340    53847   85200      0    1.55e+00    0    1.09e+00
2006 04 22  2345    53847   85500      0    1.60e+00    0    1.13e+00
2006 04 22  2350    53847   85800      0    1.59e+00    0    1.11e+00
2006 04 22  2355    53847   86100      0    1.54e+00    0    1.08e+00
