:Data_list: 20061114_ace_sis_5m.txt
:Created: 2006 Nov 15 0011 UT
# Prepared by the U.S. Dept. of Commerce, NOAA, Space Environment Center.
# Please send comments and suggestions to SEC.Webmaster@noaa.gov 
# 
# Units: proton flux p/cs2-sec-ster
# Status(S): 0 = nominal data, 1 to 8 = bad data record, 9 = no data
# Missing data values: -1.00e+05
# Source: ACE Satellite - Solar Isotope Spectrometer
#
# 5-minute averaged Real-time Integral Flux of High-energy Solar Protons
# 
#                 Modified Seconds
# UT Date   Time   Julian  of the      ---- Integral Proton Flux ----
# YR MO DA  HHMM     Day     Day       S    > 10 MeV    S    > 30 MeV
#--------------------------------------------------------------------
2006 11 14  0000    54053       0      0    1.71e+00    0    1.19e+00
2006 11 14  0005    54053     300      0    1.70e+00    0    1.19e+00
2006 11 14  0010    54053     600      0    1.73e+00    0    1.21e+00
2006 11 14  0015    54053     900      0    1.73e+00    0    1.21e+00
2006 11 14  0020    54053    1200      0    1.68e+00    0    1.16e+00
2006 11 14  0025    54053    1500      0    1.66e+00    0    1.15e+00
2006 11 14  0030    54053    1800      0    1.70e+00    0    1.19e+00
2006 11 14  0035    54053    2100      0    1.72e+00    0    1.21e+00
2006 11 14  0040    54053    2400      0    1.71e+00    0    1.19e+00
2006 11 14  0045    54053    2700      0    1.70e+00    0    1.19e+00
2006 11 14  0050    54053    3000      0    1.69e+00    0    1.19e+00
2006 11 14  0055    54053    3300      0    1.67e+00    0    1.17e+00
2006 11 14  0100    54053    3600      0    1.69e+00    0    1.18e+00
2006 11 14  0105    54053    3900      0    1.67e+00    0    1.16e+00
2006 11 14  0110    54053    4200      0    1.72e+00    0    1.20e+00
2006 11 14  0115    54053    4500      0    1.68e+00    0    1.18e+00
2006 11 14  0120    54053    4800      0    1.70e+00    0    1.18e+00
2006 11 14  0125    54053    5100      0    1.66e+00    0    1.15e+00
2006 11 14  0130    54053    5400      0    1.71e+00    0    1.19e+00
2006 11 14  0135    54053    5700      0    1.72e+00    0    1.20e+00
2006 11 14  0140    54053    6000      0    1.71e+00    0    1.19e+00
2006 11 14  0145    54053    6300      0    1.72e+00    0    1.21e+00
2006 11 14  0150    54053    6600      0    1.70e+00    0    1.19e+00
2006 11 14  0155    54053    6900      0    1.67e+00    0    1.17e+00
2006 11 14  0200    54053    7200      0    1.67e+00    0    1.16e+00
2006 11 14  0205    54053    7500      0    1.68e+00    0    1.17e+00
2006 11 14  0210    54053    7800      0    1.66e+00    0    1.16e+00
2006 11 14  0215    54053    8100      0    1.73e+00    0    1.21e+00
2006 11 14  0220    54053    8400      0    1.71e+00    0    1.19e+00
2006 11 14  0225    54053    8700      0    1.70e+00    0    1.18e+00
2006 11 14  0230    54053    9000      0    1.71e+00    0    1.19e+00
2006 11 14  0235    54053    9300      0    1.69e+00    0    1.18e+00
2006 11 14  0240    54053    9600      0    1.68e+00    0    1.17e+00
2006 11 14  0245    54053    9900      0    1.71e+00    0    1.19e+00
2006 11 14  0250    54053   10200      0    1.70e+00    0    1.18e+00
2006 11 14  0255    54053   10500      0    1.69e+00    0    1.19e+00
2006 11 14  0300    54053   10800      0    1.69e+00    0    1.18e+00
2006 11 14  0305    54053   11100      0    1.67e+00    0    1.16e+00
2006 11 14  0310    54053   11400      0    1.70e+00    0    1.19e+00
2006 11 14  0315    54053   11700      0    1.71e+00    0    1.19e+00
2006 11 14  0320    54053   12000      0    1.70e+00    0    1.19e+00
2006 11 14  0325    54053   12300      0    1.71e+00    0    1.20e+00
2006 11 14  0330    54053   12600      0    1.69e+00    0    1.18e+00
2006 11 14  0335    54053   12900      0    1.69e+00    0    1.18e+00
2006 11 14  0340    54053   13200      0    1.71e+00    0    1.20e+00
2006 11 14  0345    54053   13500      0    1.70e+00    0    1.19e+00
2006 11 14  0350    54053   13800      0    1.72e+00    0    1.20e+00
2006 11 14  0355    54053   14100      0    1.69e+00    0    1.17e+00
2006 11 14  0400    54053   14400      0    1.67e+00    0    1.18e+00
2006 11 14  0405    54053   14700      0    1.71e+00    0    1.19e+00
2006 11 14  0410    54053   15000      0    1.66e+00    0    1.16e+00
2006 11 14  0415    54053   15300      0    1.66e+00    0    1.16e+00
2006 11 14  0420    54053   15600      0    1.65e+00    0    1.15e+00
2006 11 14  0425    54053   15900      0    1.67e+00    0    1.16e+00
2006 11 14  0430    54053   16200      0    1.69e+00    0    1.19e+00
2006 11 14  0435    54053   16500      0    1.67e+00    0    1.18e+00
2006 11 14  0440    54053   16800      0    1.70e+00    0    1.19e+00
2006 11 14  0445    54053   17100      0    1.74e+00    0    1.22e+00
2006 11 14  0450    54053   17400      0    1.69e+00    0    1.19e+00
2006 11 14  0455    54053   17700      0    1.69e+00    0    1.18e+00
2006 11 14  0500    54053   18000      0    1.67e+00    0    1.17e+00
2006 11 14  0505    54053   18300      0    1.66e+00    0    1.17e+00
2006 11 14  0510    54053   18600      0    1.67e+00    0    1.16e+00
2006 11 14  0515    54053   18900      0    1.64e+00    0    1.14e+00
2006 11 14  0520    54053   19200      0    1.67e+00    0    1.16e+00
2006 11 14  0525    54053   19500      0    1.73e+00    0    1.20e+00
2006 11 14  0530    54053   19800      0    1.69e+00    0    1.19e+00
2006 11 14  0535    54053   20100      0    1.69e+00    0    1.18e+00
2006 11 14  0540    54053   20400      0    1.71e+00    0    1.20e+00
2006 11 14  0545    54053   20700      0    1.66e+00    0    1.17e+00
2006 11 14  0550    54053   21000      0    1.67e+00    0    1.17e+00
2006 11 14  0555    54053   21300      0    1.67e+00    0    1.17e+00
2006 11 14  0600    54053   21600      0    1.69e+00    0    1.19e+00
2006 11 14  0605    54053   21900      0    1.67e+00    0    1.17e+00
2006 11 14  0610    54053   22200      0    1.68e+00    0    1.16e+00
2006 11 14  0615    54053   22500      0    1.66e+00    0    1.17e+00
2006 11 14  0620    54053   22800      0    1.68e+00    0    1.17e+00
2006 11 14  0625    54053   23100      0    1.69e+00    0    1.18e+00
2006 11 14  0630    54053   23400      0    1.68e+00    0    1.17e+00
2006 11 14  0635    54053   23700      0    1.67e+00    0    1.16e+00
2006 11 14  0640    54053   24000      0    1.68e+00    0    1.17e+00
2006 11 14  0645    54053   24300      0    1.68e+00    0    1.18e+00
2006 11 14  0650    54053   24600      0    1.66e+00    0    1.15e+00
2006 11 14  0655    54053   24900      0    1.69e+00    0    1.18e+00
2006 11 14  0700    54053   25200      0    1.65e+00    0    1.15e+00
2006 11 14  0705    54053   25500      0    1.72e+00    0    1.20e+00
2006 11 14  0710    54053   25800      0    1.67e+00    0    1.18e+00
2006 11 14  0715    54053   26100      0    1.65e+00    0    1.15e+00
2006 11 14  0720    54053   26400      0    1.70e+00    0    1.20e+00
2006 11 14  0725    54053   26700      0    1.68e+00    0    1.18e+00
2006 11 14  0730    54053   27000      0    1.72e+00    0    1.20e+00
2006 11 14  0735    54053   27300      0    1.68e+00    0    1.19e+00
2006 11 14  0740    54053   27600      0    1.68e+00    0    1.16e+00
2006 11 14  0745    54053   27900      0    1.69e+00    0    1.17e+00
2006 11 14  0750    54053   28200      0    1.69e+00    0    1.17e+00
2006 11 14  0755    54053   28500      0    1.66e+00    0    1.16e+00
2006 11 14  0800    54053   28800      0    1.70e+00    0    1.19e+00
2006 11 14  0805    54053   29100      0    1.64e+00    0    1.14e+00
2006 11 14  0810    54053   29400      0    1.67e+00    0    1.17e+00
2006 11 14  0815    54053   29700      0    1.66e+00    0    1.15e+00
2006 11 14  0820    54053   30000      0    1.63e+00    0    1.14e+00
2006 11 14  0825    54053   30300      0    1.65e+00    0    1.16e+00
2006 11 14  0830    54053   30600      0    1.65e+00    0    1.16e+00
2006 11 14  0835    54053   30900      0    1.68e+00    0    1.17e+00
2006 11 14  0840    54053   31200      0    1.65e+00    0    1.16e+00
2006 11 14  0845    54053   31500      0    1.69e+00    0    1.19e+00
2006 11 14  0850    54053   31800      0    1.67e+00    0    1.17e+00
2006 11 14  0855    54053   32100      0    1.67e+00    0    1.17e+00
2006 11 14  0900    54053   32400      0    1.66e+00    0    1.15e+00
2006 11 14  0905    54053   32700      0    1.70e+00    0    1.18e+00
2006 11 14  0910    54053   33000      0    1.67e+00    0    1.17e+00
2006 11 14  0915    54053   33300      0    1.71e+00    0    1.19e+00
2006 11 14  0920    54053   33600      0    1.69e+00    0    1.18e+00
2006 11 14  0925    54053   33900      0    1.66e+00    0    1.17e+00
2006 11 14  0930    54053   34200      0    1.70e+00    0    1.19e+00
2006 11 14  0935    54053   34500      0    1.66e+00    0    1.16e+00
2006 11 14  0940    54053   34800      0    1.69e+00    0    1.20e+00
2006 11 14  0945    54053   35100      0    1.69e+00    0    1.19e+00
2006 11 14  0950    54053   35400      0    1.67e+00    0    1.16e+00
2006 11 14  0955    54053   35700      0    1.68e+00    0    1.17e+00
2006 11 14  1000    54053   36000      0    1.66e+00    0    1.16e+00
2006 11 14  1005    54053   36300      0    1.66e+00    0    1.15e+00
2006 11 14  1010    54053   36600      0    1.68e+00    0    1.17e+00
2006 11 14  1015    54053   36900      0    1.66e+00    0    1.15e+00
2006 11 14  1020    54053   37200      0    1.69e+00    0    1.18e+00
2006 11 14  1025    54053   37500      0    1.70e+00    0    1.19e+00
2006 11 14  1030    54053   37800      0    1.70e+00    0    1.19e+00
2006 11 14  1035    54053   38100      0    1.69e+00    0    1.18e+00
2006 11 14  1040    54053   38400      0    1.67e+00    0    1.16e+00
2006 11 14  1045    54053   38700      0    1.72e+00    0    1.20e+00
2006 11 14  1050    54053   39000      0    1.66e+00    0    1.16e+00
2006 11 14  1055    54053   39300      0    1.67e+00    0    1.16e+00
2006 11 14  1100    54053   39600      0    1.64e+00    0    1.14e+00
2006 11 14  1105    54053   39900      0    1.69e+00    0    1.19e+00
2006 11 14  1110    54053   40200      0    1.70e+00    0    1.19e+00
2006 11 14  1115    54053   40500      0    1.68e+00    0    1.17e+00
2006 11 14  1120    54053   40800      0    1.67e+00    0    1.17e+00
2006 11 14  1125    54053   41100      0    1.70e+00    0    1.18e+00
2006 11 14  1130    54053   41400      0    1.72e+00    0    1.21e+00
2006 11 14  1135    54053   41700      0    1.71e+00    0    1.19e+00
2006 11 14  1140    54053   42000      0    1.69e+00    0    1.19e+00
2006 11 14  1145    54053   42300      0    1.70e+00    0    1.19e+00
2006 11 14  1150    54053   42600      0    1.69e+00    0    1.17e+00
2006 11 14  1155    54053   42900      0    1.70e+00    0    1.19e+00
2006 11 14  1200    54053   43200      0    1.66e+00    0    1.15e+00
2006 11 14  1205    54053   43500      0    1.69e+00    0    1.17e+00
2006 11 14  1210    54053   43800      0    1.70e+00    0    1.17e+00
2006 11 14  1215    54053   44100      0    1.69e+00    0    1.18e+00
2006 11 14  1220    54053   44400      0    1.66e+00    0    1.15e+00
2006 11 14  1225    54053   44700      0    1.70e+00    0    1.20e+00
2006 11 14  1230    54053   45000      0    1.72e+00    0    1.21e+00
2006 11 14  1235    54053   45300      0    1.67e+00    0    1.18e+00
2006 11 14  1240    54053   45600      0    1.67e+00    0    1.18e+00
2006 11 14  1245    54053   45900      0    1.72e+00    0    1.19e+00
2006 11 14  1250    54053   46200      0    1.69e+00    0    1.18e+00
2006 11 14  1255    54053   46500      0    1.72e+00    0    1.20e+00
2006 11 14  1300    54053   46800      0    1.69e+00    0    1.19e+00
2006 11 14  1305    54053   47100      0    1.68e+00    0    1.16e+00
2006 11 14  1310    54053   47400      0    1.67e+00    0    1.17e+00
2006 11 14  1315    54053   47700      0    1.73e+00    0    1.20e+00
2006 11 14  1320    54053   48000      0    1.71e+00    0    1.20e+00
2006 11 14  1325    54053   48300      0    1.68e+00    0    1.17e+00
2006 11 14  1330    54053   48600      0    1.70e+00    0    1.19e+00
2006 11 14  1335    54053   48900      0    1.69e+00    0    1.18e+00
2006 11 14  1340    54053   49200      0    1.71e+00    0    1.20e+00
2006 11 14  1345    54053   49500      0    1.68e+00    0    1.18e+00
2006 11 14  1350    54053   49800      0    1.70e+00    0    1.19e+00
2006 11 14  1355    54053   50100      0    1.68e+00    0    1.17e+00
2006 11 14  1400    54053   50400      0    1.71e+00    0    1.19e+00
2006 11 14  1405    54053   50700      0    1.65e+00    0    1.15e+00
2006 11 14  1410    54053   51000      0    1.74e+00    0    1.21e+00
2006 11 14  1415    54053   51300      0    1.69e+00    0    1.18e+00
2006 11 14  1420    54053   51600      0    1.70e+00    0    1.19e+00
2006 11 14  1425    54053   51900      0    1.71e+00    0    1.20e+00
2006 11 14  1430    54053   52200      0    1.68e+00    0    1.18e+00
2006 11 14  1435    54053   52500      0    1.72e+00    0    1.19e+00
2006 11 14  1440    54053   52800      0    1.71e+00    0    1.20e+00
2006 11 14  1445    54053   53100      0    1.69e+00    0    1.18e+00
2006 11 14  1450    54053   53400      0    1.70e+00    0    1.19e+00
2006 11 14  1455    54053   53700      0    1.71e+00    0    1.19e+00
2006 11 14  1500    54053   54000      0    1.71e+00    0    1.20e+00
2006 11 14  1505    54053   54300      0    1.68e+00    0    1.17e+00
2006 11 14  1510    54053   54600      0    1.70e+00    0    1.20e+00
2006 11 14  1515    54053   54900      0    1.71e+00    0    1.21e+00
2006 11 14  1520    54053   55200      0    1.69e+00    0    1.18e+00
2006 11 14  1525    54053   55500      0    1.72e+00    0    1.21e+00
2006 11 14  1530    54053   55800      0    1.69e+00    0    1.18e+00
2006 11 14  1535    54053   56100      0    1.72e+00    0    1.21e+00
2006 11 14  1540    54053   56400      0    1.73e+00    0    1.20e+00
2006 11 14  1545    54053   56700      0    1.72e+00    0    1.19e+00
2006 11 14  1550    54053   57000      0    1.69e+00    0    1.17e+00
2006 11 14  1555    54053   57300      0    1.70e+00    0    1.19e+00
2006 11 14  1600    54053   57600      0    1.69e+00    0    1.18e+00
2006 11 14  1605    54053   57900      0    1.69e+00    0    1.19e+00
2006 11 14  1610    54053   58200      0    1.69e+00    0    1.18e+00
2006 11 14  1615    54053   58500      0    1.70e+00    0    1.20e+00
2006 11 14  1620    54053   58800      0    1.69e+00    0    1.19e+00
2006 11 14  1625    54053   59100      0    1.73e+00    0    1.20e+00
2006 11 14  1630    54053   59400      0    1.72e+00    0    1.19e+00
2006 11 14  1635    54053   59700      0    1.69e+00    0    1.17e+00
2006 11 14  1640    54053   60000      0    1.73e+00    0    1.21e+00
2006 11 14  1645    54053   60300      0    1.71e+00    0    1.20e+00
2006 11 14  1650    54053   60600      0    1.71e+00    0    1.20e+00
2006 11 14  1655    54053   60900      0    1.68e+00    0    1.18e+00
2006 11 14  1700    54053   61200      0    1.71e+00    0    1.20e+00
2006 11 14  1705    54053   61500      0    1.72e+00    0    1.21e+00
2006 11 14  1710    54053   61800      0    1.75e+00    0    1.22e+00
2006 11 14  1715    54053   62100      0    1.72e+00    0    1.20e+00
2006 11 14  1720    54053   62400      0    1.73e+00    0    1.20e+00
2006 11 14  1725    54053   62700      0    1.72e+00    0    1.20e+00
2006 11 14  1730    54053   63000      0    1.68e+00    0    1.17e+00
2006 11 14  1735    54053   63300      0    1.72e+00    0    1.20e+00
2006 11 14  1740    54053   63600      0    1.71e+00    0    1.19e+00
2006 11 14  1745    54053   63900      0    1.67e+00    0    1.17e+00
2006 11 14  1750    54053   64200      0    1.66e+00    0    1.16e+00
2006 11 14  1755    54053   64500      0    1.69e+00    0    1.17e+00
2006 11 14  1800    54053   64800      0    1.71e+00    0    1.19e+00
2006 11 14  1805    54053   65100      0    1.72e+00    0    1.21e+00
2006 11 14  1810    54053   65400      0    1.71e+00    0    1.21e+00
2006 11 14  1815    54053   65700      0    1.71e+00    0    1.21e+00
2006 11 14  1820    54053   66000      0    1.73e+00    0    1.22e+00
2006 11 14  1825    54053   66300      0    1.72e+00    0    1.21e+00
2006 11 14  1830    54053   66600      0    1.69e+00    0    1.17e+00
2006 11 14  1835    54053   66900      0    1.73e+00    0    1.22e+00
2006 11 14  1840    54053   67200      0    1.72e+00    0    1.20e+00
2006 11 14  1845    54053   67500      0    1.70e+00    0    1.19e+00
2006 11 14  1850    54053   67800      0    1.70e+00    0    1.19e+00
2006 11 14  1855    54053   68100      0    1.70e+00    0    1.18e+00
2006 11 14  1900    54053   68400      0    1.71e+00    0    1.19e+00
2006 11 14  1905    54053   68700      0    1.72e+00    0    1.19e+00
2006 11 14  1910    54053   69000      0    1.71e+00    0    1.21e+00
2006 11 14  1915    54053   69300      0    1.70e+00    0    1.19e+00
2006 11 14  1920    54053   69600      0    1.70e+00    0    1.19e+00
2006 11 14  1925    54053   69900      0    1.71e+00    0    1.21e+00
2006 11 14  1930    54053   70200      0    1.73e+00    0    1.20e+00
2006 11 14  1935    54053   70500      0    1.70e+00    0    1.19e+00
2006 11 14  1940    54053   70800      0    1.72e+00    0    1.20e+00
2006 11 14  1945    54053   71100      0    1.73e+00    0    1.22e+00
2006 11 14  1950    54053   71400      0    1.72e+00    0    1.21e+00
2006 11 14  1955    54053   71700      0    1.67e+00    0    1.19e+00
2006 11 14  2000    54053   72000      0    1.73e+00    0    1.21e+00
2006 11 14  2005    54053   72300      0    1.72e+00    0    1.20e+00
2006 11 14  2010    54053   72600      0    1.67e+00    0    1.17e+00
2006 11 14  2015    54053   72900      0    1.70e+00    0    1.20e+00
2006 11 14  2020    54053   73200      0    1.67e+00    0    1.17e+00
2006 11 14  2025    54053   73500      0    1.73e+00    0    1.20e+00
2006 11 14  2030    54053   73800      0    1.70e+00    0    1.17e+00
2006 11 14  2035    54053   74100      0    1.71e+00    0    1.20e+00
2006 11 14  2040    54053   74400      0    1.71e+00    0    1.20e+00
2006 11 14  2045    54053   74700      0    1.69e+00    0    1.19e+00
2006 11 14  2050    54053   75000      0    1.70e+00    0    1.20e+00
2006 11 14  2055    54053   75300      9   -1.00e+05    9   -1.00e+05
2006 11 14  2100    54053   75600      9   -1.00e+05    9   -1.00e+05
2006 11 14  2105    54053   75900      9   -1.00e+05    9   -1.00e+05
2006 11 14  2110    54053   76200      9   -1.00e+05    9   -1.00e+05
2006 11 14  2115    54053   76500      9   -1.00e+05    9   -1.00e+05
2006 11 14  2120    54053   76800      9   -1.00e+05    9   -1.00e+05
2006 11 14  2125    54053   77100      9   -1.00e+05    9   -1.00e+05
2006 11 14  2130    54053   77400      9   -1.00e+05    9   -1.00e+05
2006 11 14  2135    54053   77700      9   -1.00e+05    9   -1.00e+05
2006 11 14  2140    54053   78000      9   -1.00e+05    9   -1.00e+05
2006 11 14  2145    54053   78300      9   -1.00e+05    9   -1.00e+05
2006 11 14  2150    54053   78600      0    1.66e+00    0    1.17e+00
2006 11 14  2155    54053   78900      0    1.67e+00    0    1.17e+00
2006 11 14  2200    54053   79200      0    1.67e+00    0    1.17e+00
2006 11 14  2205    54053   79500      0    1.70e+00    0    1.19e+00
2006 11 14  2210    54053   79800      0    1.67e+00    0    1.18e+00
2006 11 14  2215    54053   80100      0    1.67e+00    0    1.16e+00
2006 11 14  2220    54053   80400      0    1.68e+00    0    1.18e+00
2006 11 14  2225    54053   80700      0    1.68e+00    0    1.19e+00
2006 11 14  2230    54053   81000      0    1.68e+00    0    1.17e+00
2006 11 14  2235    54053   81300      0    1.66e+00    0    1.17e+00
2006 11 14  2240    54053   81600      0    1.68e+00    0    1.18e+00
2006 11 14  2245    54053   81900      0    1.71e+00    0    1.20e+00
2006 11 14  2250    54053   82200      0    1.69e+00    0    1.19e+00
2006 11 14  2255    54053   82500      0    1.67e+00    0    1.16e+00
2006 11 14  2300    54053   82800      0    1.61e+00    0    1.13e+00
2006 11 14  2305    54053   83100      0    1.66e+00    0    1.16e+00
2006 11 14  2310    54053   83400      0    1.67e+00    0    1.17e+00
2006 11 14  2315    54053   83700      0    1.65e+00    0    1.15e+00
2006 11 14  2320    54053   84000      0    1.68e+00    0    1.18e+00
2006 11 14  2325    54053   84300      0    1.65e+00    0    1.15e+00
2006 11 14  2330    54053   84600      0    1.66e+00    0    1.15e+00
2006 11 14  2335    54053   84900      0    1.66e+00    0    1.16e+00
2006 11 14  2340    54053   85200      0    1.67e+00    0    1.17e+00
2006 11 14  2345    54053   85500      0    1.67e+00    0    1.18e+00
2006 11 14  2350    54053   85800      0    1.64e+00    0    1.15e+00
2006 11 14  2355    54053   86100      0    1.63e+00    0    1.15e+00
