:Data_list: 20061011_ace_sis_5m.txt
:Created: 2006 Oct 12 0011 UT
# Prepared by the U.S. Dept. of Commerce, NOAA, Space Environment Center.
# Please send comments and suggestions to SEC.Webmaster@noaa.gov 
# 
# Units: proton flux p/cs2-sec-ster
# Status(S): 0 = nominal data, 1 to 8 = bad data record, 9 = no data
# Missing data values: -1.00e+05
# Source: ACE Satellite - Solar Isotope Spectrometer
#
# 5-minute averaged Real-time Integral Flux of High-energy Solar Protons
# 
#                 Modified Seconds
# UT Date   Time   Julian  of the      ---- Integral Proton Flux ----
# YR MO DA  HHMM     Day     Day       S    > 10 MeV    S    > 30 MeV
#--------------------------------------------------------------------
2006 10 11  0000    54019       0      0    1.66e+00    0    1.17e+00
2006 10 11  0005    54019     300      0    1.70e+00    0    1.20e+00
2006 10 11  0010    54019     600      0    1.72e+00    0    1.20e+00
2006 10 11  0015    54019     900      0    1.67e+00    0    1.16e+00
2006 10 11  0020    54019    1200      0    1.68e+00    0    1.17e+00
2006 10 11  0025    54019    1500      0    1.70e+00    0    1.19e+00
2006 10 11  0030    54019    1800      0    1.71e+00    0    1.20e+00
2006 10 11  0035    54019    2100      0    1.69e+00    0    1.18e+00
2006 10 11  0040    54019    2400      0    1.69e+00    0    1.18e+00
2006 10 11  0045    54019    2700      0    1.70e+00    0    1.19e+00
2006 10 11  0050    54019    3000      0    1.70e+00    0    1.19e+00
2006 10 11  0055    54019    3300      0    1.73e+00    0    1.21e+00
2006 10 11  0100    54019    3600      0    1.71e+00    0    1.21e+00
2006 10 11  0105    54019    3900      0    1.70e+00    0    1.20e+00
2006 10 11  0110    54019    4200      0    1.71e+00    0    1.21e+00
2006 10 11  0115    54019    4500      0    1.71e+00    0    1.20e+00
2006 10 11  0120    54019    4800      0    1.70e+00    0    1.20e+00
2006 10 11  0125    54019    5100      0    1.73e+00    0    1.21e+00
2006 10 11  0130    54019    5400      0    1.72e+00    0    1.22e+00
2006 10 11  0135    54019    5700      0    1.75e+00    0    1.22e+00
2006 10 11  0140    54019    6000      0    1.72e+00    0    1.22e+00
2006 10 11  0145    54019    6300      0    1.74e+00    0    1.21e+00
2006 10 11  0150    54019    6600      0    1.71e+00    0    1.20e+00
2006 10 11  0155    54019    6900      0    1.67e+00    0    1.18e+00
2006 10 11  0200    54019    7200      0    1.69e+00    0    1.20e+00
2006 10 11  0205    54019    7500      0    1.72e+00    0    1.21e+00
2006 10 11  0210    54019    7800      0    1.72e+00    0    1.21e+00
2006 10 11  0215    54019    8100      0    1.74e+00    0    1.23e+00
2006 10 11  0220    54019    8400      0    1.70e+00    0    1.20e+00
2006 10 11  0225    54019    8700      0    1.70e+00    0    1.20e+00
2006 10 11  0230    54019    9000      0    1.73e+00    0    1.21e+00
2006 10 11  0235    54019    9300      0    1.71e+00    0    1.21e+00
2006 10 11  0240    54019    9600      0    1.71e+00    0    1.20e+00
2006 10 11  0245    54019    9900      0    1.71e+00    0    1.20e+00
2006 10 11  0250    54019   10200      0    1.68e+00    0    1.18e+00
2006 10 11  0255    54019   10500      0    1.68e+00    0    1.19e+00
2006 10 11  0300    54019   10800      0    1.65e+00    0    1.15e+00
2006 10 11  0305    54019   11100      0    1.69e+00    0    1.19e+00
2006 10 11  0310    54019   11400      0    1.57e+00    0    1.11e+00
2006 10 11  0315    54019   11700      0    1.70e+00    0    1.19e+00
2006 10 11  0320    54019   12000      0    1.66e+00    0    1.17e+00
2006 10 11  0325    54019   12300      0    1.72e+00    0    1.21e+00
2006 10 11  0330    54019   12600      0    1.67e+00    0    1.18e+00
2006 10 11  0335    54019   12900      0    1.71e+00    0    1.20e+00
2006 10 11  0340    54019   13200      0    1.71e+00    0    1.20e+00
2006 10 11  0345    54019   13500      0    1.76e+00    0    1.24e+00
2006 10 11  0350    54019   13800      0    1.71e+00    0    1.19e+00
2006 10 11  0355    54019   14100      0    1.67e+00    0    1.18e+00
2006 10 11  0400    54019   14400      0    1.74e+00    0    1.22e+00
2006 10 11  0405    54019   14700      0    1.72e+00    0    1.20e+00
2006 10 11  0410    54019   15000      0    1.70e+00    0    1.20e+00
2006 10 11  0415    54019   15300      0    1.71e+00    0    1.19e+00
2006 10 11  0420    54019   15600      0    1.69e+00    0    1.18e+00
2006 10 11  0425    54019   15900      0    1.69e+00    0    1.19e+00
2006 10 11  0430    54019   16200      0    1.72e+00    0    1.21e+00
2006 10 11  0435    54019   16500      0    1.71e+00    0    1.20e+00
2006 10 11  0440    54019   16800      0    1.65e+00    0    1.15e+00
2006 10 11  0445    54019   17100      0    1.71e+00    0    1.20e+00
2006 10 11  0450    54019   17400      0    1.69e+00    0    1.18e+00
2006 10 11  0455    54019   17700      0    1.67e+00    0    1.18e+00
2006 10 11  0500    54019   18000      0    1.70e+00    0    1.19e+00
2006 10 11  0505    54019   18300      0    1.71e+00    0    1.19e+00
2006 10 11  0510    54019   18600      0    1.71e+00    0    1.19e+00
2006 10 11  0515    54019   18900      0    1.69e+00    0    1.19e+00
2006 10 11  0520    54019   19200      0    1.72e+00    0    1.21e+00
2006 10 11  0525    54019   19500      0    1.70e+00    0    1.20e+00
2006 10 11  0530    54019   19800      0    1.73e+00    0    1.22e+00
2006 10 11  0535    54019   20100      0    1.70e+00    0    1.20e+00
2006 10 11  0540    54019   20400      0    1.69e+00    0    1.18e+00
2006 10 11  0545    54019   20700      0    1.70e+00    0    1.18e+00
2006 10 11  0550    54019   21000      0    1.68e+00    0    1.17e+00
2006 10 11  0555    54019   21300      0    1.71e+00    0    1.21e+00
2006 10 11  0600    54019   21600      0    1.67e+00    0    1.17e+00
2006 10 11  0605    54019   21900      0    1.71e+00    0    1.19e+00
2006 10 11  0610    54019   22200      0    1.73e+00    0    1.22e+00
2006 10 11  0615    54019   22500      0    1.69e+00    0    1.18e+00
2006 10 11  0620    54019   22800      0    1.71e+00    0    1.20e+00
2006 10 11  0625    54019   23100      0    1.71e+00    0    1.19e+00
2006 10 11  0630    54019   23400      0    1.69e+00    0    1.18e+00
2006 10 11  0635    54019   23700      0    1.71e+00    0    1.20e+00
2006 10 11  0640    54019   24000      0    1.72e+00    0    1.21e+00
2006 10 11  0645    54019   24300      0    1.68e+00    0    1.18e+00
2006 10 11  0650    54019   24600      0    1.73e+00    0    1.22e+00
2006 10 11  0655    54019   24900      0    1.68e+00    0    1.18e+00
2006 10 11  0700    54019   25200      0    1.71e+00    0    1.19e+00
2006 10 11  0705    54019   25500      0    1.72e+00    0    1.21e+00
2006 10 11  0710    54019   25800      0    1.68e+00    0    1.18e+00
2006 10 11  0715    54019   26100      0    1.69e+00    0    1.19e+00
2006 10 11  0720    54019   26400      0    1.66e+00    0    1.16e+00
2006 10 11  0725    54019   26700      0    1.67e+00    0    1.17e+00
2006 10 11  0730    54019   27000      0    1.71e+00    0    1.21e+00
2006 10 11  0735    54019   27300      0    1.68e+00    0    1.18e+00
2006 10 11  0740    54019   27600      0    1.72e+00    0    1.21e+00
2006 10 11  0745    54019   27900      0    1.68e+00    0    1.17e+00
2006 10 11  0750    54019   28200      0    1.73e+00    0    1.22e+00
2006 10 11  0755    54019   28500      0    1.74e+00    0    1.21e+00
2006 10 11  0800    54019   28800      0    1.71e+00    0    1.20e+00
2006 10 11  0805    54019   29100      0    1.69e+00    0    1.19e+00
2006 10 11  0810    54019   29400      0    1.67e+00    0    1.15e+00
2006 10 11  0815    54019   29700      0    1.73e+00    0    1.21e+00
2006 10 11  0820    54019   30000      0    1.73e+00    0    1.20e+00
2006 10 11  0825    54019   30300      0    1.74e+00    0    1.22e+00
2006 10 11  0830    54019   30600      0    1.71e+00    0    1.19e+00
2006 10 11  0835    54019   30900      0    1.72e+00    0    1.21e+00
2006 10 11  0840    54019   31200      0    1.73e+00    0    1.21e+00
2006 10 11  0845    54019   31500      0    1.71e+00    0    1.20e+00
2006 10 11  0850    54019   31800      0    1.71e+00    0    1.19e+00
2006 10 11  0855    54019   32100      0    1.71e+00    0    1.21e+00
2006 10 11  0900    54019   32400      0    1.70e+00    0    1.20e+00
2006 10 11  0905    54019   32700      0    1.70e+00    0    1.19e+00
2006 10 11  0910    54019   33000      0    1.70e+00    0    1.19e+00
2006 10 11  0915    54019   33300      0    1.68e+00    0    1.16e+00
2006 10 11  0920    54019   33600      0    1.72e+00    0    1.20e+00
2006 10 11  0925    54019   33900      0    1.71e+00    0    1.20e+00
2006 10 11  0930    54019   34200      0    1.71e+00    0    1.20e+00
2006 10 11  0935    54019   34500      0    1.68e+00    0    1.17e+00
2006 10 11  0940    54019   34800      0    1.69e+00    0    1.18e+00
2006 10 11  0945    54019   35100      0    1.70e+00    0    1.19e+00
2006 10 11  0950    54019   35400      0    1.72e+00    0    1.21e+00
2006 10 11  0955    54019   35700      0    1.66e+00    0    1.15e+00
2006 10 11  1000    54019   36000      0    1.66e+00    0    1.16e+00
2006 10 11  1005    54019   36300      0    1.72e+00    0    1.20e+00
2006 10 11  1010    54019   36600      0    1.73e+00    0    1.23e+00
2006 10 11  1015    54019   36900      0    1.69e+00    0    1.18e+00
2006 10 11  1020    54019   37200      0    1.73e+00    0    1.21e+00
2006 10 11  1025    54019   37500      0    1.72e+00    0    1.20e+00
2006 10 11  1030    54019   37800      0    1.70e+00    0    1.19e+00
2006 10 11  1035    54019   38100      0    1.69e+00    0    1.19e+00
2006 10 11  1040    54019   38400      0    1.70e+00    0    1.19e+00
2006 10 11  1045    54019   38700      0    1.70e+00    0    1.18e+00
2006 10 11  1050    54019   39000      0    1.73e+00    0    1.20e+00
2006 10 11  1055    54019   39300      0    1.72e+00    0    1.22e+00
2006 10 11  1100    54019   39600      0    1.68e+00    0    1.19e+00
2006 10 11  1105    54019   39900      0    1.70e+00    0    1.18e+00
2006 10 11  1110    54019   40200      0    1.71e+00    0    1.20e+00
2006 10 11  1115    54019   40500      0    1.72e+00    0    1.20e+00
2006 10 11  1120    54019   40800      0    1.72e+00    0    1.21e+00
2006 10 11  1125    54019   41100      0    1.71e+00    0    1.21e+00
2006 10 11  1130    54019   41400      0    1.71e+00    0    1.19e+00
2006 10 11  1135    54019   41700      0    1.67e+00    0    1.17e+00
2006 10 11  1140    54019   42000      0    1.73e+00    0    1.22e+00
2006 10 11  1145    54019   42300      0    1.68e+00    0    1.18e+00
2006 10 11  1150    54019   42600      0    1.69e+00    0    1.19e+00
2006 10 11  1155    54019   42900      0    1.66e+00    0    1.17e+00
2006 10 11  1200    54019   43200      0    1.71e+00    0    1.20e+00
2006 10 11  1205    54019   43500      0    1.72e+00    0    1.20e+00
2006 10 11  1210    54019   43800      0    1.69e+00    0    1.19e+00
2006 10 11  1215    54019   44100      0    1.67e+00    0    1.17e+00
2006 10 11  1220    54019   44400      0    1.68e+00    0    1.17e+00
2006 10 11  1225    54019   44700      0    1.73e+00    0    1.22e+00
2006 10 11  1230    54019   45000      0    1.69e+00    0    1.17e+00
2006 10 11  1235    54019   45300      0    1.70e+00    0    1.19e+00
2006 10 11  1240    54019   45600      0    1.71e+00    0    1.20e+00
2006 10 11  1245    54019   45900      0    1.73e+00    0    1.22e+00
2006 10 11  1250    54019   46200      0    1.71e+00    0    1.19e+00
2006 10 11  1255    54019   46500      0    1.68e+00    0    1.18e+00
2006 10 11  1300    54019   46800      0    1.71e+00    0    1.19e+00
2006 10 11  1305    54019   47100      0    1.71e+00    0    1.20e+00
2006 10 11  1310    54019   47400      0    1.72e+00    0    1.20e+00
2006 10 11  1315    54019   47700      0    1.68e+00    0    1.17e+00
2006 10 11  1320    54019   48000      0    1.68e+00    0    1.18e+00
2006 10 11  1325    54019   48300      0    1.66e+00    0    1.16e+00
2006 10 11  1330    54019   48600      0    1.69e+00    0    1.20e+00
2006 10 11  1335    54019   48900      0    1.68e+00    0    1.18e+00
2006 10 11  1340    54019   49200      0    1.66e+00    0    1.17e+00
2006 10 11  1345    54019   49500      0    1.69e+00    0    1.19e+00
2006 10 11  1350    54019   49800      0    1.69e+00    0    1.19e+00
2006 10 11  1355    54019   50100      0    1.71e+00    0    1.19e+00
2006 10 11  1400    54019   50400      0    1.75e+00    0    1.22e+00
2006 10 11  1405    54019   50700      0    1.71e+00    0    1.20e+00
2006 10 11  1410    54019   51000      0    1.69e+00    0    1.19e+00
2006 10 11  1415    54019   51300      0    1.71e+00    0    1.20e+00
2006 10 11  1420    54019   51600      0    1.74e+00    0    1.22e+00
2006 10 11  1425    54019   51900      0    1.67e+00    0    1.18e+00
2006 10 11  1430    54019   52200      0    1.68e+00    0    1.17e+00
2006 10 11  1435    54019   52500      0    1.71e+00    0    1.20e+00
2006 10 11  1440    54019   52800      0    1.69e+00    0    1.18e+00
2006 10 11  1445    54019   53100      0    1.73e+00    0    1.21e+00
2006 10 11  1450    54019   53400      0    1.72e+00    0    1.21e+00
2006 10 11  1455    54019   53700      0    1.71e+00    0    1.21e+00
2006 10 11  1500    54019   54000      0    1.72e+00    0    1.21e+00
2006 10 11  1505    54019   54300      0    1.73e+00    0    1.21e+00
2006 10 11  1510    54019   54600      0    1.67e+00    0    1.17e+00
2006 10 11  1515    54019   54900      0    1.68e+00    0    1.18e+00
2006 10 11  1520    54019   55200      0    1.72e+00    0    1.21e+00
2006 10 11  1525    54019   55500      0    1.69e+00    0    1.19e+00
2006 10 11  1530    54019   55800      0    1.69e+00    0    1.19e+00
2006 10 11  1535    54019   56100      0    1.70e+00    0    1.19e+00
2006 10 11  1540    54019   56400      0    1.70e+00    0    1.20e+00
2006 10 11  1545    54019   56700      0    1.70e+00    0    1.19e+00
2006 10 11  1550    54019   57000      0    1.68e+00    0    1.18e+00
2006 10 11  1555    54019   57300      0    1.69e+00    0    1.18e+00
2006 10 11  1600    54019   57600      0    1.70e+00    0    1.19e+00
2006 10 11  1605    54019   57900      0    1.69e+00    0    1.19e+00
2006 10 11  1610    54019   58200      0    1.71e+00    0    1.21e+00
2006 10 11  1615    54019   58500      0    1.69e+00    0    1.18e+00
2006 10 11  1620    54019   58800      0    1.69e+00    0    1.19e+00
2006 10 11  1625    54019   59100      0    1.67e+00    0    1.16e+00
2006 10 11  1630    54019   59400      0    1.67e+00    0    1.17e+00
2006 10 11  1635    54019   59700      0    1.70e+00    0    1.20e+00
2006 10 11  1640    54019   60000      0    1.69e+00    0    1.19e+00
2006 10 11  1645    54019   60300      0    1.70e+00    0    1.18e+00
2006 10 11  1650    54019   60600      0    1.68e+00    0    1.18e+00
2006 10 11  1655    54019   60900      0    1.69e+00    0    1.19e+00
2006 10 11  1700    54019   61200      0    1.67e+00    0    1.17e+00
2006 10 11  1705    54019   61500      0    1.65e+00    0    1.15e+00
2006 10 11  1710    54019   61800      0    1.68e+00    0    1.18e+00
2006 10 11  1715    54019   62100      0    1.71e+00    0    1.21e+00
2006 10 11  1720    54019   62400      0    1.69e+00    0    1.19e+00
2006 10 11  1725    54019   62700      0    1.66e+00    0    1.16e+00
2006 10 11  1730    54019   63000      0    1.66e+00    0    1.16e+00
2006 10 11  1735    54019   63300      0    1.67e+00    0    1.18e+00
2006 10 11  1740    54019   63600      0    1.69e+00    0    1.19e+00
2006 10 11  1745    54019   63900      0    1.73e+00    0    1.22e+00
2006 10 11  1750    54019   64200      0    1.69e+00    0    1.18e+00
2006 10 11  1755    54019   64500      0    1.67e+00    0    1.17e+00
2006 10 11  1800    54019   64800      0    1.71e+00    0    1.20e+00
2006 10 11  1805    54019   65100      0    1.70e+00    0    1.20e+00
2006 10 11  1810    54019   65400      0    1.72e+00    0    1.20e+00
2006 10 11  1815    54019   65700      0    1.67e+00    0    1.17e+00
2006 10 11  1820    54019   66000      0    1.68e+00    0    1.18e+00
2006 10 11  1825    54019   66300      0    1.71e+00    0    1.19e+00
2006 10 11  1830    54019   66600      0    1.69e+00    0    1.20e+00
2006 10 11  1835    54019   66900      0    1.71e+00    0    1.21e+00
2006 10 11  1840    54019   67200      0    1.69e+00    0    1.18e+00
2006 10 11  1845    54019   67500      0    1.72e+00    0    1.20e+00
2006 10 11  1850    54019   67800      0    1.73e+00    0    1.21e+00
2006 10 11  1855    54019   68100      0    1.68e+00    0    1.18e+00
2006 10 11  1900    54019   68400      0    1.68e+00    0    1.17e+00
2006 10 11  1905    54019   68700      0    1.71e+00    0    1.19e+00
2006 10 11  1910    54019   69000      0    1.67e+00    0    1.19e+00
2006 10 11  1915    54019   69300      0    1.67e+00    0    1.15e+00
2006 10 11  1920    54019   69600      0    1.69e+00    0    1.18e+00
2006 10 11  1925    54019   69900      0    1.67e+00    0    1.16e+00
2006 10 11  1930    54019   70200      0    1.71e+00    0    1.20e+00
2006 10 11  1935    54019   70500      0    1.70e+00    0    1.19e+00
2006 10 11  1940    54019   70800      0    1.66e+00    0    1.18e+00
2006 10 11  1945    54019   71100      0    1.72e+00    0    1.22e+00
2006 10 11  1950    54019   71400      0    1.68e+00    0    1.18e+00
2006 10 11  1955    54019   71700      0    1.71e+00    0    1.20e+00
2006 10 11  2000    54019   72000      0    1.68e+00    0    1.17e+00
2006 10 11  2005    54019   72300      0    1.71e+00    0    1.20e+00
2006 10 11  2010    54019   72600      0    1.71e+00    0    1.20e+00
2006 10 11  2015    54019   72900      0    1.71e+00    0    1.18e+00
2006 10 11  2020    54019   73200      0    1.73e+00    0    1.21e+00
2006 10 11  2025    54019   73500      0    1.71e+00    0    1.20e+00
2006 10 11  2030    54019   73800      0    1.70e+00    0    1.19e+00
2006 10 11  2035    54019   74100      0    1.71e+00    0    1.20e+00
2006 10 11  2040    54019   74400      0    1.67e+00    0    1.17e+00
2006 10 11  2045    54019   74700      0    1.74e+00    0    1.21e+00
2006 10 11  2050    54019   75000      0    1.69e+00    0    1.18e+00
2006 10 11  2055    54019   75300      0    1.67e+00    0    1.18e+00
2006 10 11  2100    54019   75600      0    1.72e+00    0    1.20e+00
2006 10 11  2105    54019   75900      0    1.72e+00    0    1.21e+00
2006 10 11  2110    54019   76200      0    1.71e+00    0    1.19e+00
2006 10 11  2115    54019   76500      0    1.70e+00    0    1.18e+00
2006 10 11  2120    54019   76800      0    1.69e+00    0    1.18e+00
2006 10 11  2125    54019   77100      0    1.68e+00    0    1.18e+00
2006 10 11  2130    54019   77400      0    1.70e+00    0    1.20e+00
2006 10 11  2135    54019   77700      0    1.68e+00    0    1.17e+00
2006 10 11  2140    54019   78000      0    1.69e+00    0    1.19e+00
2006 10 11  2145    54019   78300      0    1.70e+00    0    1.20e+00
2006 10 11  2150    54019   78600      0    1.71e+00    0    1.21e+00
2006 10 11  2155    54019   78900      9   -1.00e+05    9   -1.00e+05
2006 10 11  2200    54019   79200      9   -1.00e+05    9   -1.00e+05
2006 10 11  2205    54019   79500      9   -1.00e+05    9   -1.00e+05
2006 10 11  2210    54019   79800      9   -1.00e+05    9   -1.00e+05
2006 10 11  2215    54019   80100      0    1.68e+00    0    1.19e+00
2006 10 11  2220    54019   80400      0    1.69e+00    0    1.18e+00
2006 10 11  2225    54019   80700      0    1.68e+00    0    1.17e+00
2006 10 11  2230    54019   81000      0    1.67e+00    0    1.17e+00
2006 10 11  2235    54019   81300      0    1.66e+00    0    1.16e+00
2006 10 11  2240    54019   81600      0    1.70e+00    0    1.19e+00
2006 10 11  2245    54019   81900      0    1.68e+00    0    1.19e+00
2006 10 11  2250    54019   82200      0    1.71e+00    0    1.20e+00
2006 10 11  2255    54019   82500      0    1.66e+00    0    1.17e+00
2006 10 11  2300    54019   82800      0    1.68e+00    0    1.17e+00
2006 10 11  2305    54019   83100      0    1.67e+00    0    1.19e+00
2006 10 11  2310    54019   83400      0    1.71e+00    0    1.19e+00
2006 10 11  2315    54019   83700      0    1.70e+00    0    1.19e+00
2006 10 11  2320    54019   84000      0    1.72e+00    0    1.20e+00
2006 10 11  2325    54019   84300      0    1.71e+00    0    1.20e+00
2006 10 11  2330    54019   84600      0    1.73e+00    0    1.20e+00
2006 10 11  2335    54019   84900      0    1.68e+00    0    1.18e+00
2006 10 11  2340    54019   85200      0    1.72e+00    0    1.21e+00
2006 10 11  2345    54019   85500      0    1.76e+00    0    1.23e+00
2006 10 11  2350    54019   85800      0    1.75e+00    0    1.25e+00
2006 10 11  2355    54019   86100      0    1.70e+00    0    1.19e+00
