:Data_list: 20060419_ace_sis_5m.txt
:Created: 2006 Apr 20 0011 UT
# Prepared by the U.S. Dept. of Commerce, NOAA, Space Environment Center.
# Please send comments and suggestions to SEC.Webmaster@noaa.gov 
# 
# Units: proton flux p/cs2-sec-ster
# Status(S): 0 = nominal data, 1 to 8 = bad data record, 9 = no data
# Missing data values: -1.00e+05
# Source: ACE Satellite - Solar Isotope Spectrometer
#
# 5-minute averaged Real-time Integral Flux of High-energy Solar Protons
# 
#                 Modified Seconds
# UT Date   Time   Julian  of the      ---- Integral Proton Flux ----
# YR MO DA  HHMM     Day     Day       S    > 10 MeV    S    > 30 MeV
#--------------------------------------------------------------------
2006 04 19  0000    53844       0      0    1.63e+00    0    1.14e+00
2006 04 19  0005    53844     300      0    1.59e+00    0    1.11e+00
2006 04 19  0010    53844     600      0    1.58e+00    0    1.12e+00
2006 04 19  0015    53844     900      0    1.57e+00    0    1.09e+00
2006 04 19  0020    53844    1200      0    1.55e+00    0    1.08e+00
2006 04 19  0025    53844    1500      0    1.57e+00    0    1.09e+00
2006 04 19  0030    53844    1800      0    1.57e+00    0    1.10e+00
2006 04 19  0035    53844    2100      0    1.59e+00    0    1.12e+00
2006 04 19  0040    53844    2400      0    1.57e+00    0    1.10e+00
2006 04 19  0045    53844    2700      0    1.63e+00    0    1.16e+00
2006 04 19  0050    53844    3000      0    1.59e+00    0    1.13e+00
2006 04 19  0055    53844    3300      0    1.59e+00    0    1.13e+00
2006 04 19  0100    53844    3600      0    1.58e+00    0    1.10e+00
2006 04 19  0105    53844    3900      0    1.58e+00    0    1.11e+00
2006 04 19  0110    53844    4200      0    1.58e+00    0    1.11e+00
2006 04 19  0115    53844    4500      0    1.56e+00    0    1.08e+00
2006 04 19  0120    53844    4800      0    1.59e+00    0    1.12e+00
2006 04 19  0125    53844    5100      0    1.62e+00    0    1.13e+00
2006 04 19  0130    53844    5400      0    1.56e+00    0    1.10e+00
2006 04 19  0135    53844    5700      0    1.59e+00    0    1.11e+00
2006 04 19  0140    53844    6000      0    1.55e+00    0    1.10e+00
2006 04 19  0145    53844    6300      0    1.56e+00    0    1.09e+00
2006 04 19  0150    53844    6600      0    1.61e+00    0    1.14e+00
2006 04 19  0155    53844    6900      0    1.56e+00    0    1.09e+00
2006 04 19  0200    53844    7200      0    1.59e+00    0    1.12e+00
2006 04 19  0205    53844    7500      0    1.56e+00    0    1.09e+00
2006 04 19  0210    53844    7800      0    1.62e+00    0    1.13e+00
2006 04 19  0215    53844    8100      0    1.57e+00    0    1.10e+00
2006 04 19  0220    53844    8400      0    1.56e+00    0    1.09e+00
2006 04 19  0225    53844    8700      0    1.55e+00    0    1.07e+00
2006 04 19  0230    53844    9000      0    1.56e+00    0    1.09e+00
2006 04 19  0235    53844    9300      0    1.60e+00    0    1.13e+00
2006 04 19  0240    53844    9600      0    1.55e+00    0    1.08e+00
2006 04 19  0245    53844    9900      0    1.57e+00    0    1.10e+00
2006 04 19  0250    53844   10200      0    1.59e+00    0    1.13e+00
2006 04 19  0255    53844   10500      0    1.59e+00    0    1.13e+00
2006 04 19  0300    53844   10800      0    1.58e+00    0    1.11e+00
2006 04 19  0305    53844   11100      0    1.55e+00    0    1.08e+00
2006 04 19  0310    53844   11400      0    1.55e+00    0    1.07e+00
2006 04 19  0315    53844   11700      0    1.60e+00    0    1.13e+00
2006 04 19  0320    53844   12000      0    1.58e+00    0    1.10e+00
2006 04 19  0325    53844   12300      0    1.61e+00    0    1.13e+00
2006 04 19  0330    53844   12600      0    1.58e+00    0    1.11e+00
2006 04 19  0335    53844   12900      0    1.58e+00    0    1.12e+00
2006 04 19  0340    53844   13200      0    1.58e+00    0    1.13e+00
2006 04 19  0345    53844   13500      0    1.58e+00    0    1.11e+00
2006 04 19  0350    53844   13800      0    1.60e+00    0    1.11e+00
2006 04 19  0355    53844   14100      0    1.60e+00    0    1.12e+00
2006 04 19  0400    53844   14400      0    1.56e+00    0    1.09e+00
2006 04 19  0405    53844   14700      0    1.58e+00    0    1.11e+00
2006 04 19  0410    53844   15000      0    1.60e+00    0    1.12e+00
2006 04 19  0415    53844   15300      0    1.57e+00    0    1.10e+00
2006 04 19  0420    53844   15600      0    1.56e+00    0    1.09e+00
2006 04 19  0425    53844   15900      0    1.57e+00    0    1.09e+00
2006 04 19  0430    53844   16200      0    1.55e+00    0    1.10e+00
2006 04 19  0435    53844   16500      0    1.60e+00    0    1.11e+00
2006 04 19  0440    53844   16800      0    1.58e+00    0    1.09e+00
2006 04 19  0445    53844   17100      0    1.56e+00    0    1.10e+00
2006 04 19  0450    53844   17400      0    1.53e+00    0    1.06e+00
2006 04 19  0455    53844   17700      0    1.58e+00    0    1.12e+00
2006 04 19  0500    53844   18000      0    1.57e+00    0    1.10e+00
2006 04 19  0505    53844   18300      0    1.59e+00    0    1.10e+00
2006 04 19  0510    53844   18600      0    1.60e+00    0    1.13e+00
2006 04 19  0515    53844   18900      0    1.57e+00    0    1.10e+00
2006 04 19  0520    53844   19200      0    1.56e+00    0    1.08e+00
2006 04 19  0525    53844   19500      0    1.57e+00    0    1.09e+00
2006 04 19  0530    53844   19800      0    1.57e+00    0    1.10e+00
2006 04 19  0535    53844   20100      0    1.59e+00    0    1.12e+00
2006 04 19  0540    53844   20400      0    1.58e+00    0    1.11e+00
2006 04 19  0545    53844   20700      0    1.62e+00    0    1.13e+00
2006 04 19  0550    53844   21000      0    1.57e+00    0    1.11e+00
2006 04 19  0555    53844   21300      0    1.58e+00    0    1.10e+00
2006 04 19  0600    53844   21600      0    1.60e+00    0    1.12e+00
2006 04 19  0605    53844   21900      0    1.60e+00    0    1.12e+00
2006 04 19  0610    53844   22200      0    1.57e+00    0    1.10e+00
2006 04 19  0615    53844   22500      0    1.59e+00    0    1.11e+00
2006 04 19  0620    53844   22800      0    1.56e+00    0    1.11e+00
2006 04 19  0625    53844   23100      0    1.56e+00    0    1.08e+00
2006 04 19  0630    53844   23400      0    1.58e+00    0    1.11e+00
2006 04 19  0635    53844   23700      0    1.58e+00    0    1.11e+00
2006 04 19  0640    53844   24000      0    1.60e+00    0    1.12e+00
2006 04 19  0645    53844   24300      0    1.55e+00    0    1.09e+00
2006 04 19  0650    53844   24600      0    1.56e+00    0    1.10e+00
2006 04 19  0655    53844   24900      0    1.60e+00    0    1.13e+00
2006 04 19  0700    53844   25200      0    1.55e+00    0    1.08e+00
2006 04 19  0705    53844   25500      0    1.56e+00    0    1.10e+00
2006 04 19  0710    53844   25800      0    1.57e+00    0    1.10e+00
2006 04 19  0715    53844   26100      0    1.57e+00    0    1.10e+00
2006 04 19  0720    53844   26400      0    1.61e+00    0    1.12e+00
2006 04 19  0725    53844   26700      0    1.56e+00    0    1.09e+00
2006 04 19  0730    53844   27000      0    1.56e+00    0    1.09e+00
2006 04 19  0735    53844   27300      0    1.60e+00    0    1.13e+00
2006 04 19  0740    53844   27600      0    1.59e+00    0    1.11e+00
2006 04 19  0745    53844   27900      0    1.57e+00    0    1.10e+00
2006 04 19  0750    53844   28200      0    1.59e+00    0    1.12e+00
2006 04 19  0755    53844   28500      0    1.58e+00    0    1.11e+00
2006 04 19  0800    53844   28800      0    1.58e+00    0    1.09e+00
2006 04 19  0805    53844   29100      0    1.55e+00    0    1.09e+00
2006 04 19  0810    53844   29400      0    1.59e+00    0    1.12e+00
2006 04 19  0815    53844   29700      0    1.59e+00    0    1.13e+00
2006 04 19  0820    53844   30000      0    1.59e+00    0    1.11e+00
2006 04 19  0825    53844   30300      0    1.55e+00    0    1.08e+00
2006 04 19  0830    53844   30600      0    1.57e+00    0    1.11e+00
2006 04 19  0835    53844   30900      0    1.54e+00    0    1.08e+00
2006 04 19  0840    53844   31200      0    1.57e+00    0    1.09e+00
2006 04 19  0845    53844   31500      0    1.59e+00    0    1.11e+00
2006 04 19  0850    53844   31800      0    1.60e+00    0    1.13e+00
2006 04 19  0855    53844   32100      0    1.60e+00    0    1.13e+00
2006 04 19  0900    53844   32400      0    1.57e+00    0    1.11e+00
2006 04 19  0905    53844   32700      0    1.57e+00    0    1.10e+00
2006 04 19  0910    53844   33000      0    1.58e+00    0    1.12e+00
2006 04 19  0915    53844   33300      0    1.60e+00    0    1.11e+00
2006 04 19  0920    53844   33600      0    1.53e+00    0    1.06e+00
2006 04 19  0925    53844   33900      0    1.62e+00    0    1.14e+00
2006 04 19  0930    53844   34200      0    1.59e+00    0    1.12e+00
2006 04 19  0935    53844   34500      0    1.59e+00    0    1.11e+00
2006 04 19  0940    53844   34800      0    1.58e+00    0    1.11e+00
2006 04 19  0945    53844   35100      0    1.58e+00    0    1.10e+00
2006 04 19  0950    53844   35400      0    1.59e+00    0    1.11e+00
2006 04 19  0955    53844   35700      0    1.59e+00    0    1.12e+00
2006 04 19  1000    53844   36000      0    1.57e+00    0    1.10e+00
2006 04 19  1005    53844   36300      0    1.58e+00    0    1.11e+00
2006 04 19  1010    53844   36600      0    1.60e+00    0    1.13e+00
2006 04 19  1015    53844   36900      0    1.59e+00    0    1.11e+00
2006 04 19  1020    53844   37200      0    1.57e+00    0    1.11e+00
2006 04 19  1025    53844   37500      0    1.57e+00    0    1.10e+00
2006 04 19  1030    53844   37800      0    1.57e+00    0    1.10e+00
2006 04 19  1035    53844   38100      0    1.57e+00    0    1.10e+00
2006 04 19  1040    53844   38400      0    1.58e+00    0    1.11e+00
2006 04 19  1045    53844   38700      0    1.56e+00    0    1.10e+00
2006 04 19  1050    53844   39000      0    1.54e+00    0    1.08e+00
2006 04 19  1055    53844   39300      0    1.50e+00    0    1.06e+00
2006 04 19  1100    53844   39600      0    1.58e+00    0    1.10e+00
2006 04 19  1105    53844   39900      0    1.57e+00    0    1.09e+00
2006 04 19  1110    53844   40200      0    1.57e+00    0    1.10e+00
2006 04 19  1115    53844   40500      0    1.54e+00    0    1.07e+00
2006 04 19  1120    53844   40800      0    1.61e+00    0    1.12e+00
2006 04 19  1125    53844   41100      0    1.60e+00    0    1.13e+00
2006 04 19  1130    53844   41400      0    1.59e+00    0    1.11e+00
2006 04 19  1135    53844   41700      0    1.60e+00    0    1.11e+00
2006 04 19  1140    53844   42000      0    1.59e+00    0    1.11e+00
2006 04 19  1145    53844   42300      0    1.56e+00    0    1.09e+00
2006 04 19  1150    53844   42600      0    1.57e+00    0    1.10e+00
2006 04 19  1155    53844   42900      0    1.58e+00    0    1.11e+00
2006 04 19  1200    53844   43200      0    1.59e+00    0    1.11e+00
2006 04 19  1205    53844   43500      0    1.58e+00    0    1.11e+00
2006 04 19  1210    53844   43800      0    1.55e+00    0    1.09e+00
2006 04 19  1215    53844   44100      0    1.60e+00    0    1.12e+00
2006 04 19  1220    53844   44400      0    1.58e+00    0    1.10e+00
2006 04 19  1225    53844   44700      0    1.55e+00    0    1.09e+00
2006 04 19  1230    53844   45000      0    1.61e+00    0    1.14e+00
2006 04 19  1235    53844   45300      0    1.53e+00    0    1.07e+00
2006 04 19  1240    53844   45600      0    1.55e+00    0    1.10e+00
2006 04 19  1245    53844   45900      0    1.55e+00    0    1.08e+00
2006 04 19  1250    53844   46200      0    1.57e+00    0    1.10e+00
2006 04 19  1255    53844   46500      0    1.57e+00    0    1.08e+00
2006 04 19  1300    53844   46800      0    1.56e+00    0    1.09e+00
2006 04 19  1305    53844   47100      0    1.58e+00    0    1.12e+00
2006 04 19  1310    53844   47400      0    1.57e+00    0    1.11e+00
2006 04 19  1315    53844   47700      0    1.57e+00    0    1.10e+00
2006 04 19  1320    53844   48000      0    1.55e+00    0    1.09e+00
2006 04 19  1325    53844   48300      0    1.53e+00    0    1.08e+00
2006 04 19  1330    53844   48600      0    1.57e+00    0    1.10e+00
2006 04 19  1335    53844   48900      0    1.57e+00    0    1.11e+00
2006 04 19  1340    53844   49200      0    1.55e+00    0    1.07e+00
2006 04 19  1345    53844   49500      0    1.57e+00    0    1.11e+00
2006 04 19  1350    53844   49800      0    1.54e+00    0    1.08e+00
2006 04 19  1355    53844   50100      0    1.57e+00    0    1.10e+00
2006 04 19  1400    53844   50400      0    1.56e+00    0    1.08e+00
2006 04 19  1405    53844   50700      0    1.55e+00    0    1.09e+00
2006 04 19  1410    53844   51000      0    1.58e+00    0    1.10e+00
2006 04 19  1415    53844   51300      0    1.58e+00    0    1.11e+00
2006 04 19  1420    53844   51600      0    1.56e+00    0    1.11e+00
2006 04 19  1425    53844   51900      0    1.58e+00    0    1.10e+00
2006 04 19  1430    53844   52200      0    1.60e+00    0    1.12e+00
2006 04 19  1435    53844   52500      0    1.56e+00    0    1.10e+00
2006 04 19  1440    53844   52800      0    1.57e+00    0    1.11e+00
2006 04 19  1445    53844   53100      0    1.56e+00    0    1.10e+00
2006 04 19  1450    53844   53400      0    1.58e+00    0    1.11e+00
2006 04 19  1455    53844   53700      0    1.56e+00    0    1.09e+00
2006 04 19  1500    53844   54000      0    1.56e+00    0    1.08e+00
2006 04 19  1505    53844   54300      0    1.57e+00    0    1.11e+00
2006 04 19  1510    53844   54600      0    1.57e+00    0    1.10e+00
2006 04 19  1515    53844   54900      0    1.56e+00    0    1.09e+00
2006 04 19  1520    53844   55200      0    1.56e+00    0    1.10e+00
2006 04 19  1525    53844   55500      0    1.58e+00    0    1.11e+00
2006 04 19  1530    53844   55800      0    1.58e+00    0    1.11e+00
2006 04 19  1535    53844   56100      0    1.57e+00    0    1.10e+00
2006 04 19  1540    53844   56400      0    1.54e+00    0    1.10e+00
2006 04 19  1545    53844   56700      0    1.55e+00    0    1.09e+00
2006 04 19  1550    53844   57000      0    1.57e+00    0    1.10e+00
2006 04 19  1555    53844   57300      0    1.54e+00    0    1.10e+00
2006 04 19  1600    53844   57600      0    1.57e+00    0    1.11e+00
2006 04 19  1605    53844   57900      0    1.56e+00    0    1.10e+00
2006 04 19  1610    53844   58200      0    1.52e+00    0    1.05e+00
2006 04 19  1615    53844   58500      0    1.55e+00    0    1.08e+00
2006 04 19  1620    53844   58800      0    1.56e+00    0    1.10e+00
2006 04 19  1625    53844   59100      0    1.56e+00    0    1.10e+00
2006 04 19  1630    53844   59400      0    1.56e+00    0    1.09e+00
2006 04 19  1635    53844   59700      0    1.55e+00    0    1.09e+00
2006 04 19  1640    53844   60000      0    1.58e+00    0    1.10e+00
2006 04 19  1645    53844   60300      0    1.58e+00    0    1.10e+00
2006 04 19  1650    53844   60600      0    1.52e+00    0    1.07e+00
2006 04 19  1655    53844   60900      0    1.55e+00    0    1.08e+00
2006 04 19  1700    53844   61200      0    1.55e+00    0    1.09e+00
2006 04 19  1705    53844   61500      0    1.56e+00    0    1.10e+00
2006 04 19  1710    53844   61800      0    1.56e+00    0    1.10e+00
2006 04 19  1715    53844   62100      0    1.55e+00    0    1.09e+00
2006 04 19  1720    53844   62400      0    1.56e+00    0    1.09e+00
2006 04 19  1725    53844   62700      0    1.55e+00    0    1.10e+00
2006 04 19  1730    53844   63000      0    1.56e+00    0    1.10e+00
2006 04 19  1735    53844   63300      0    1.56e+00    0    1.09e+00
2006 04 19  1740    53844   63600      0    1.57e+00    0    1.10e+00
2006 04 19  1745    53844   63900      0    1.54e+00    0    1.09e+00
2006 04 19  1750    53844   64200      0    1.57e+00    0    1.11e+00
2006 04 19  1755    53844   64500      0    1.58e+00    0    1.11e+00
2006 04 19  1800    53844   64800      0    1.57e+00    0    1.11e+00
2006 04 19  1805    53844   65100      0    1.59e+00    0    1.12e+00
2006 04 19  1810    53844   65400      0    1.54e+00    0    1.07e+00
2006 04 19  1815    53844   65700      0    1.59e+00    0    1.13e+00
2006 04 19  1820    53844   66000      0    1.56e+00    0    1.10e+00
2006 04 19  1825    53844   66300      0    1.56e+00    0    1.08e+00
2006 04 19  1830    53844   66600      0    1.59e+00    0    1.12e+00
2006 04 19  1835    53844   66900      0    1.58e+00    0    1.12e+00
2006 04 19  1840    53844   67200      0    1.53e+00    0    1.07e+00
2006 04 19  1845    53844   67500      0    1.52e+00    0    1.07e+00
2006 04 19  1850    53844   67800      0    1.55e+00    0    1.08e+00
2006 04 19  1855    53844   68100      0    1.54e+00    0    1.08e+00
2006 04 19  1900    53844   68400      0    1.57e+00    0    1.10e+00
2006 04 19  1905    53844   68700      0    1.56e+00    0    1.10e+00
2006 04 19  1910    53844   69000      0    1.59e+00    0    1.11e+00
2006 04 19  1915    53844   69300      0    1.58e+00    0    1.12e+00
2006 04 19  1920    53844   69600      0    1.53e+00    0    1.06e+00
2006 04 19  1925    53844   69900      0    1.53e+00    0    1.08e+00
2006 04 19  1930    53844   70200      0    1.55e+00    0    1.08e+00
2006 04 19  1935    53844   70500      0    1.56e+00    0    1.09e+00
2006 04 19  1940    53844   70800      0    1.60e+00    0    1.11e+00
2006 04 19  1945    53844   71100      0    1.59e+00    0    1.12e+00
2006 04 19  1950    53844   71400      0    1.57e+00    0    1.12e+00
2006 04 19  1955    53844   71700      0    1.53e+00    0    1.07e+00
2006 04 19  2000    53844   72000      0    1.58e+00    0    1.10e+00
2006 04 19  2005    53844   72300      0    1.61e+00    0    1.14e+00
2006 04 19  2010    53844   72600      0    1.57e+00    0    1.12e+00
2006 04 19  2015    53844   72900      0    1.55e+00    0    1.09e+00
2006 04 19  2020    53844   73200      0    1.56e+00    0    1.09e+00
2006 04 19  2025    53844   73500      0    1.57e+00    0    1.11e+00
2006 04 19  2030    53844   73800      0    1.60e+00    0    1.11e+00
2006 04 19  2035    53844   74100      0    1.57e+00    0    1.10e+00
2006 04 19  2040    53844   74400      0    1.57e+00    0    1.09e+00
2006 04 19  2045    53844   74700      0    1.58e+00    0    1.10e+00
2006 04 19  2050    53844   75000      0    1.59e+00    0    1.11e+00
2006 04 19  2055    53844   75300      0    1.61e+00    0    1.13e+00
2006 04 19  2100    53844   75600      0    1.56e+00    0    1.10e+00
2006 04 19  2105    53844   75900      0    1.58e+00    0    1.12e+00
2006 04 19  2110    53844   76200      0    1.58e+00    0    1.10e+00
2006 04 19  2115    53844   76500      0    1.62e+00    0    1.12e+00
2006 04 19  2120    53844   76800      0    1.56e+00    0    1.10e+00
2006 04 19  2125    53844   77100      0    1.57e+00    0    1.11e+00
2006 04 19  2130    53844   77400      0    1.54e+00    0    1.08e+00
2006 04 19  2135    53844   77700      0    1.60e+00    0    1.11e+00
2006 04 19  2140    53844   78000      0    1.60e+00    0    1.14e+00
2006 04 19  2145    53844   78300      0    1.60e+00    0    1.12e+00
2006 04 19  2150    53844   78600      0    1.59e+00    0    1.12e+00
2006 04 19  2155    53844   78900      0    1.58e+00    0    1.10e+00
2006 04 19  2200    53844   79200      0    1.56e+00    0    1.10e+00
2006 04 19  2205    53844   79500      0    1.58e+00    0    1.10e+00
2006 04 19  2210    53844   79800      0    1.57e+00    0    1.10e+00
2006 04 19  2215    53844   80100      0    1.62e+00    0    1.15e+00
2006 04 19  2220    53844   80400      0    1.59e+00    0    1.12e+00
2006 04 19  2225    53844   80700      0    1.59e+00    0    1.11e+00
2006 04 19  2230    53844   81000      0    1.57e+00    0    1.10e+00
2006 04 19  2235    53844   81300      0    1.61e+00    0    1.13e+00
2006 04 19  2240    53844   81600      0    1.60e+00    0    1.13e+00
2006 04 19  2245    53844   81900      0    1.57e+00    0    1.09e+00
2006 04 19  2250    53844   82200      0    1.59e+00    0    1.13e+00
2006 04 19  2255    53844   82500      0    1.60e+00    0    1.14e+00
2006 04 19  2300    53844   82800      0    1.58e+00    0    1.10e+00
2006 04 19  2305    53844   83100      0    1.61e+00    0    1.13e+00
2006 04 19  2310    53844   83400      0    1.60e+00    0    1.12e+00
2006 04 19  2315    53844   83700      0    1.62e+00    0    1.14e+00
2006 04 19  2320    53844   84000      0    1.61e+00    0    1.13e+00
2006 04 19  2325    53844   84300      0    1.55e+00    0    1.08e+00
2006 04 19  2330    53844   84600      0    1.56e+00    0    1.10e+00
2006 04 19  2335    53844   84900      0    1.60e+00    0    1.13e+00
2006 04 19  2340    53844   85200      0    1.60e+00    0    1.13e+00
2006 04 19  2345    53844   85500      0    1.60e+00    0    1.13e+00
2006 04 19  2350    53844   85800      0    1.59e+00    0    1.11e+00
2006 04 19  2355    53844   86100      0    1.54e+00    0    1.06e+00
