:Data_list: 20060529_ace_sis_5m.txt
:Created: 2006 May 30 0011 UT
# Prepared by the U.S. Dept. of Commerce, NOAA, Space Environment Center.
# Please send comments and suggestions to SEC.Webmaster@noaa.gov 
# 
# Units: proton flux p/cs2-sec-ster
# Status(S): 0 = nominal data, 1 to 8 = bad data record, 9 = no data
# Missing data values: -1.00e+05
# Source: ACE Satellite - Solar Isotope Spectrometer
#
# 5-minute averaged Real-time Integral Flux of High-energy Solar Protons
# 
#                 Modified Seconds
# UT Date   Time   Julian  of the      ---- Integral Proton Flux ----
# YR MO DA  HHMM     Day     Day       S    > 10 MeV    S    > 30 MeV
#--------------------------------------------------------------------
2006 05 29  0000    53884       0      0    1.63e+00    0    1.14e+00
2006 05 29  0005    53884     300      0    1.61e+00    0    1.14e+00
2006 05 29  0010    53884     600      0    1.61e+00    0    1.11e+00
2006 05 29  0015    53884     900      0    1.63e+00    0    1.14e+00
2006 05 29  0020    53884    1200      0    1.64e+00    0    1.16e+00
2006 05 29  0025    53884    1500      0    1.65e+00    0    1.17e+00
2006 05 29  0030    53884    1800      0    1.65e+00    0    1.16e+00
2006 05 29  0035    53884    2100      0    1.63e+00    0    1.14e+00
2006 05 29  0040    53884    2400      0    1.63e+00    0    1.13e+00
2006 05 29  0045    53884    2700      0    1.68e+00    0    1.17e+00
2006 05 29  0050    53884    3000      0    1.65e+00    0    1.17e+00
2006 05 29  0055    53884    3300      0    1.63e+00    0    1.14e+00
2006 05 29  0100    53884    3600      0    1.64e+00    0    1.15e+00
2006 05 29  0105    53884    3900      0    1.64e+00    0    1.15e+00
2006 05 29  0110    53884    4200      0    1.62e+00    0    1.14e+00
2006 05 29  0115    53884    4500      0    1.62e+00    0    1.14e+00
2006 05 29  0120    53884    4800      0    1.65e+00    0    1.16e+00
2006 05 29  0125    53884    5100      0    1.64e+00    0    1.14e+00
2006 05 29  0130    53884    5400      0    1.65e+00    0    1.16e+00
2006 05 29  0135    53884    5700      0    1.64e+00    0    1.16e+00
2006 05 29  0140    53884    6000      0    1.63e+00    0    1.14e+00
2006 05 29  0145    53884    6300      0    1.65e+00    0    1.16e+00
2006 05 29  0150    53884    6600      0    1.64e+00    0    1.14e+00
2006 05 29  0155    53884    6900      0    1.65e+00    0    1.15e+00
2006 05 29  0200    53884    7200      0    1.65e+00    0    1.15e+00
2006 05 29  0205    53884    7500      0    1.63e+00    0    1.15e+00
2006 05 29  0210    53884    7800      0    1.63e+00    0    1.15e+00
2006 05 29  0215    53884    8100      0    1.68e+00    0    1.18e+00
2006 05 29  0220    53884    8400      0    1.63e+00    0    1.15e+00
2006 05 29  0225    53884    8700      0    1.61e+00    0    1.14e+00
2006 05 29  0230    53884    9000      0    1.65e+00    0    1.16e+00
2006 05 29  0235    53884    9300      0    1.65e+00    0    1.15e+00
2006 05 29  0240    53884    9600      0    1.63e+00    0    1.14e+00
2006 05 29  0245    53884    9900      0    1.68e+00    0    1.17e+00
2006 05 29  0250    53884   10200      0    1.66e+00    0    1.16e+00
2006 05 29  0255    53884   10500      0    1.63e+00    0    1.14e+00
2006 05 29  0300    53884   10800      0    1.63e+00    0    1.13e+00
2006 05 29  0305    53884   11100      0    1.64e+00    0    1.15e+00
2006 05 29  0310    53884   11400      0    1.63e+00    0    1.14e+00
2006 05 29  0315    53884   11700      0    1.64e+00    0    1.15e+00
2006 05 29  0320    53884   12000      0    1.65e+00    0    1.18e+00
2006 05 29  0325    53884   12300      0    1.63e+00    0    1.13e+00
2006 05 29  0330    53884   12600      0    1.66e+00    0    1.17e+00
2006 05 29  0335    53884   12900      0    1.64e+00    0    1.16e+00
2006 05 29  0340    53884   13200      0    1.64e+00    0    1.15e+00
2006 05 29  0345    53884   13500      0    1.63e+00    0    1.15e+00
2006 05 29  0350    53884   13800      0    1.63e+00    0    1.12e+00
2006 05 29  0355    53884   14100      0    1.64e+00    0    1.15e+00
2006 05 29  0400    53884   14400      0    1.65e+00    0    1.15e+00
2006 05 29  0405    53884   14700      0    1.64e+00    0    1.14e+00
2006 05 29  0410    53884   15000      0    1.63e+00    0    1.14e+00
2006 05 29  0415    53884   15300      0    1.64e+00    0    1.15e+00
2006 05 29  0420    53884   15600      0    1.61e+00    0    1.12e+00
2006 05 29  0425    53884   15900      0    1.63e+00    0    1.14e+00
2006 05 29  0430    53884   16200      0    1.62e+00    0    1.15e+00
2006 05 29  0435    53884   16500      0    1.64e+00    0    1.15e+00
2006 05 29  0440    53884   16800      0    1.66e+00    0    1.17e+00
2006 05 29  0445    53884   17100      0    1.68e+00    0    1.19e+00
2006 05 29  0450    53884   17400      0    1.61e+00    0    1.13e+00
2006 05 29  0455    53884   17700      0    1.59e+00    0    1.12e+00
2006 05 29  0500    53884   18000      0    1.66e+00    0    1.17e+00
2006 05 29  0505    53884   18300      0    1.64e+00    0    1.15e+00
2006 05 29  0510    53884   18600      0    1.64e+00    0    1.13e+00
2006 05 29  0515    53884   18900      0    1.67e+00    0    1.17e+00
2006 05 29  0520    53884   19200      0    1.61e+00    0    1.11e+00
2006 05 29  0525    53884   19500      0    1.69e+00    0    1.18e+00
2006 05 29  0530    53884   19800      0    1.63e+00    0    1.12e+00
2006 05 29  0535    53884   20100      0    1.63e+00    0    1.14e+00
2006 05 29  0540    53884   20400      0    1.65e+00    0    1.14e+00
2006 05 29  0545    53884   20700      0    1.64e+00    0    1.15e+00
2006 05 29  0550    53884   21000      0    1.63e+00    0    1.15e+00
2006 05 29  0555    53884   21300      0    1.66e+00    0    1.17e+00
2006 05 29  0600    53884   21600      0    1.63e+00    0    1.14e+00
2006 05 29  0605    53884   21900      0    1.69e+00    0    1.19e+00
2006 05 29  0610    53884   22200      0    1.64e+00    0    1.16e+00
2006 05 29  0615    53884   22500      0    1.64e+00    0    1.14e+00
2006 05 29  0620    53884   22800      0    1.62e+00    0    1.14e+00
2006 05 29  0625    53884   23100      0    1.65e+00    0    1.15e+00
2006 05 29  0630    53884   23400      0    1.53e+00    0    1.08e+00
2006 05 29  0635    53884   23700      0    1.65e+00    0    1.15e+00
2006 05 29  0640    53884   24000      0    1.68e+00    0    1.18e+00
2006 05 29  0645    53884   24300      0    1.63e+00    0    1.15e+00
2006 05 29  0650    53884   24600      0    1.66e+00    0    1.16e+00
2006 05 29  0655    53884   24900      0    1.60e+00    0    1.11e+00
2006 05 29  0700    53884   25200      0    1.62e+00    0    1.13e+00
2006 05 29  0705    53884   25500      0    1.66e+00    0    1.16e+00
2006 05 29  0710    53884   25800      0    1.63e+00    0    1.16e+00
2006 05 29  0715    53884   26100      0    1.64e+00    0    1.14e+00
2006 05 29  0720    53884   26400      0    1.65e+00    0    1.15e+00
2006 05 29  0725    53884   26700      0    1.62e+00    0    1.13e+00
2006 05 29  0730    53884   27000      0    1.69e+00    0    1.20e+00
2006 05 29  0735    53884   27300      0    1.64e+00    0    1.15e+00
2006 05 29  0740    53884   27600      0    1.66e+00    0    1.17e+00
2006 05 29  0745    53884   27900      0    1.69e+00    0    1.19e+00
2006 05 29  0750    53884   28200      0    1.67e+00    0    1.16e+00
2006 05 29  0755    53884   28500      0    1.67e+00    0    1.17e+00
2006 05 29  0800    53884   28800      0    1.65e+00    0    1.15e+00
2006 05 29  0805    53884   29100      0    1.68e+00    0    1.17e+00
2006 05 29  0810    53884   29400      0    1.63e+00    0    1.15e+00
2006 05 29  0815    53884   29700      0    1.66e+00    0    1.16e+00
2006 05 29  0820    53884   30000      0    1.67e+00    0    1.16e+00
2006 05 29  0825    53884   30300      0    1.70e+00    0    1.18e+00
2006 05 29  0830    53884   30600      0    1.68e+00    0    1.19e+00
2006 05 29  0835    53884   30900      0    1.60e+00    0    1.14e+00
2006 05 29  0840    53884   31200      0    1.64e+00    0    1.15e+00
2006 05 29  0845    53884   31500      0    1.63e+00    0    1.13e+00
2006 05 29  0850    53884   31800      0    1.64e+00    0    1.14e+00
2006 05 29  0855    53884   32100      0    1.64e+00    0    1.14e+00
2006 05 29  0900    53884   32400      0    1.66e+00    0    1.17e+00
2006 05 29  0905    53884   32700      0    1.66e+00    0    1.16e+00
2006 05 29  0910    53884   33000      0    1.62e+00    0    1.11e+00
2006 05 29  0915    53884   33300      0    1.65e+00    0    1.15e+00
2006 05 29  0920    53884   33600      0    1.63e+00    0    1.13e+00
2006 05 29  0925    53884   33900      0    1.64e+00    0    1.16e+00
2006 05 29  0930    53884   34200      0    1.62e+00    0    1.13e+00
2006 05 29  0935    53884   34500      0    1.65e+00    0    1.15e+00
2006 05 29  0940    53884   34800      0    1.63e+00    0    1.14e+00
2006 05 29  0945    53884   35100      0    1.67e+00    0    1.17e+00
2006 05 29  0950    53884   35400      0    1.68e+00    0    1.18e+00
2006 05 29  0955    53884   35700      0    1.64e+00    0    1.15e+00
2006 05 29  1000    53884   36000      0    1.68e+00    0    1.16e+00
2006 05 29  1005    53884   36300      0    1.65e+00    0    1.16e+00
2006 05 29  1010    53884   36600      0    1.65e+00    0    1.16e+00
2006 05 29  1015    53884   36900      0    1.63e+00    0    1.15e+00
2006 05 29  1020    53884   37200      0    1.64e+00    0    1.16e+00
2006 05 29  1025    53884   37500      0    1.65e+00    0    1.16e+00
2006 05 29  1030    53884   37800      0    1.64e+00    0    1.14e+00
2006 05 29  1035    53884   38100      0    1.66e+00    0    1.17e+00
2006 05 29  1040    53884   38400      0    1.60e+00    0    1.12e+00
2006 05 29  1045    53884   38700      0    1.63e+00    0    1.14e+00
2006 05 29  1050    53884   39000      0    1.65e+00    0    1.14e+00
2006 05 29  1055    53884   39300      0    1.63e+00    0    1.15e+00
2006 05 29  1100    53884   39600      0    1.67e+00    0    1.15e+00
2006 05 29  1105    53884   39900      0    1.65e+00    0    1.15e+00
2006 05 29  1110    53884   40200      0    1.63e+00    0    1.14e+00
2006 05 29  1115    53884   40500      0    1.67e+00    0    1.17e+00
2006 05 29  1120    53884   40800      0    1.65e+00    0    1.14e+00
2006 05 29  1125    53884   41100      0    1.68e+00    0    1.17e+00
2006 05 29  1130    53884   41400      0    1.65e+00    0    1.15e+00
2006 05 29  1135    53884   41700      0    1.68e+00    0    1.18e+00
2006 05 29  1140    53884   42000      0    1.68e+00    0    1.18e+00
2006 05 29  1145    53884   42300      0    1.60e+00    0    1.11e+00
2006 05 29  1150    53884   42600      0    1.66e+00    0    1.17e+00
2006 05 29  1155    53884   42900      0    1.59e+00    0    1.12e+00
2006 05 29  1200    53884   43200      0    1.64e+00    0    1.15e+00
2006 05 29  1205    53884   43500      0    1.65e+00    0    1.16e+00
2006 05 29  1210    53884   43800      0    1.64e+00    0    1.16e+00
2006 05 29  1215    53884   44100      0    1.68e+00    0    1.19e+00
2006 05 29  1220    53884   44400      0    1.67e+00    0    1.17e+00
2006 05 29  1225    53884   44700      0    1.66e+00    0    1.17e+00
2006 05 29  1230    53884   45000      0    1.65e+00    0    1.16e+00
2006 05 29  1235    53884   45300      0    1.66e+00    0    1.16e+00
2006 05 29  1240    53884   45600      0    1.66e+00    0    1.17e+00
2006 05 29  1245    53884   45900      0    1.64e+00    0    1.15e+00
2006 05 29  1250    53884   46200      0    1.66e+00    0    1.15e+00
2006 05 29  1255    53884   46500      0    1.63e+00    0    1.15e+00
2006 05 29  1300    53884   46800      0    1.65e+00    0    1.14e+00
2006 05 29  1305    53884   47100      0    1.66e+00    0    1.16e+00
2006 05 29  1310    53884   47400      0    1.59e+00    0    1.12e+00
2006 05 29  1315    53884   47700      0    1.65e+00    0    1.17e+00
2006 05 29  1320    53884   48000      0    1.64e+00    0    1.15e+00
2006 05 29  1325    53884   48300      0    1.67e+00    0    1.17e+00
2006 05 29  1330    53884   48600      0    1.66e+00    0    1.15e+00
2006 05 29  1335    53884   48900      0    1.65e+00    0    1.17e+00
2006 05 29  1340    53884   49200      0    1.64e+00    0    1.15e+00
2006 05 29  1345    53884   49500      0    1.66e+00    0    1.17e+00
2006 05 29  1350    53884   49800      0    1.66e+00    0    1.16e+00
2006 05 29  1355    53884   50100      0    1.66e+00    0    1.16e+00
2006 05 29  1400    53884   50400      0    1.65e+00    0    1.17e+00
2006 05 29  1405    53884   50700      0    1.66e+00    0    1.17e+00
2006 05 29  1410    53884   51000      0    1.67e+00    0    1.18e+00
2006 05 29  1415    53884   51300      0    1.61e+00    0    1.11e+00
2006 05 29  1420    53884   51600      0    1.66e+00    0    1.16e+00
2006 05 29  1425    53884   51900      0    1.64e+00    0    1.15e+00
2006 05 29  1430    53884   52200      0    1.65e+00    0    1.16e+00
2006 05 29  1435    53884   52500      0    1.69e+00    0    1.18e+00
2006 05 29  1440    53884   52800      0    1.64e+00    0    1.15e+00
2006 05 29  1445    53884   53100      0    1.66e+00    0    1.16e+00
2006 05 29  1450    53884   53400      0    1.67e+00    0    1.18e+00
2006 05 29  1455    53884   53700      0    1.66e+00    0    1.16e+00
2006 05 29  1500    53884   54000      0    1.62e+00    0    1.15e+00
2006 05 29  1505    53884   54300      0    1.63e+00    0    1.15e+00
2006 05 29  1510    53884   54600      0    1.62e+00    0    1.13e+00
2006 05 29  1515    53884   54900      0    1.65e+00    0    1.14e+00
2006 05 29  1520    53884   55200      0    1.66e+00    0    1.16e+00
2006 05 29  1525    53884   55500      0    1.64e+00    0    1.15e+00
2006 05 29  1530    53884   55800      0    1.64e+00    0    1.14e+00
2006 05 29  1535    53884   56100      0    1.63e+00    0    1.15e+00
2006 05 29  1540    53884   56400      0    1.64e+00    0    1.15e+00
2006 05 29  1545    53884   56700      0    1.65e+00    0    1.17e+00
2006 05 29  1550    53884   57000      0    1.63e+00    0    1.14e+00
2006 05 29  1555    53884   57300      0    1.65e+00    0    1.15e+00
2006 05 29  1600    53884   57600      0    1.62e+00    0    1.13e+00
2006 05 29  1605    53884   57900      0    1.64e+00    0    1.15e+00
2006 05 29  1610    53884   58200      0    1.67e+00    0    1.17e+00
2006 05 29  1615    53884   58500      0    1.63e+00    0    1.14e+00
2006 05 29  1620    53884   58800      0    1.67e+00    0    1.18e+00
2006 05 29  1625    53884   59100      0    1.65e+00    0    1.16e+00
2006 05 29  1630    53884   59400      0    1.61e+00    0    1.12e+00
2006 05 29  1635    53884   59700      0    1.70e+00    0    1.19e+00
2006 05 29  1640    53884   60000      0    1.63e+00    0    1.14e+00
2006 05 29  1645    53884   60300      0    1.64e+00    0    1.15e+00
2006 05 29  1650    53884   60600      0    1.62e+00    0    1.13e+00
2006 05 29  1655    53884   60900      0    1.67e+00    0    1.17e+00
2006 05 29  1700    53884   61200      0    1.65e+00    0    1.16e+00
2006 05 29  1705    53884   61500      0    1.63e+00    0    1.15e+00
2006 05 29  1710    53884   61800      0    1.64e+00    0    1.15e+00
2006 05 29  1715    53884   62100      0    1.65e+00    0    1.16e+00
2006 05 29  1720    53884   62400      0    1.62e+00    0    1.13e+00
2006 05 29  1725    53884   62700      0    1.66e+00    0    1.16e+00
2006 05 29  1730    53884   63000      0    1.68e+00    0    1.18e+00
2006 05 29  1735    53884   63300      0    1.63e+00    0    1.15e+00
2006 05 29  1740    53884   63600      0    1.66e+00    0    1.17e+00
2006 05 29  1745    53884   63900      0    1.65e+00    0    1.15e+00
2006 05 29  1750    53884   64200      0    1.68e+00    0    1.18e+00
2006 05 29  1755    53884   64500      0    1.66e+00    0    1.16e+00
2006 05 29  1800    53884   64800      0    1.63e+00    0    1.15e+00
2006 05 29  1805    53884   65100      0    1.64e+00    0    1.15e+00
2006 05 29  1810    53884   65400      0    1.65e+00    0    1.16e+00
2006 05 29  1815    53884   65700      0    1.66e+00    0    1.16e+00
2006 05 29  1820    53884   66000      0    1.68e+00    0    1.18e+00
2006 05 29  1825    53884   66300      0    1.66e+00    0    1.17e+00
2006 05 29  1830    53884   66600      0    1.64e+00    0    1.15e+00
2006 05 29  1835    53884   66900      0    1.65e+00    0    1.15e+00
2006 05 29  1840    53884   67200      0    1.68e+00    0    1.18e+00
2006 05 29  1845    53884   67500      0    1.64e+00    0    1.15e+00
2006 05 29  1850    53884   67800      0    1.69e+00    0    1.19e+00
2006 05 29  1855    53884   68100      0    1.65e+00    0    1.16e+00
2006 05 29  1900    53884   68400      0    1.65e+00    0    1.15e+00
2006 05 29  1905    53884   68700      0    1.61e+00    0    1.12e+00
2006 05 29  1910    53884   69000      0    1.64e+00    0    1.15e+00
2006 05 29  1915    53884   69300      0    1.65e+00    0    1.17e+00
2006 05 29  1920    53884   69600      0    1.65e+00    0    1.14e+00
2006 05 29  1925    53884   69900      0    1.62e+00    0    1.13e+00
2006 05 29  1930    53884   70200      0    1.67e+00    0    1.17e+00
2006 05 29  1935    53884   70500      0    1.65e+00    0    1.15e+00
2006 05 29  1940    53884   70800      0    1.67e+00    0    1.16e+00
2006 05 29  1945    53884   71100      0    1.66e+00    0    1.17e+00
2006 05 29  1950    53884   71400      0    1.67e+00    0    1.17e+00
2006 05 29  1955    53884   71700      0    1.65e+00    0    1.17e+00
2006 05 29  2000    53884   72000      0    1.65e+00    0    1.15e+00
2006 05 29  2005    53884   72300      0    1.68e+00    0    1.17e+00
2006 05 29  2010    53884   72600      0    1.65e+00    0    1.15e+00
2006 05 29  2015    53884   72900      0    1.62e+00    0    1.12e+00
2006 05 29  2020    53884   73200      0    1.64e+00    0    1.14e+00
2006 05 29  2025    53884   73500      0    1.61e+00    0    1.14e+00
2006 05 29  2030    53884   73800      0    1.61e+00    0    1.14e+00
2006 05 29  2035    53884   74100      0    1.65e+00    0    1.18e+00
2006 05 29  2040    53884   74400      0    1.62e+00    0    1.14e+00
2006 05 29  2045    53884   74700      0    1.65e+00    0    1.16e+00
2006 05 29  2050    53884   75000      0    1.65e+00    0    1.15e+00
2006 05 29  2055    53884   75300      0    1.65e+00    0    1.16e+00
2006 05 29  2100    53884   75600      0    1.62e+00    0    1.14e+00
2006 05 29  2105    53884   75900      0    1.64e+00    0    1.16e+00
2006 05 29  2110    53884   76200      0    1.65e+00    0    1.16e+00
2006 05 29  2115    53884   76500      0    1.65e+00    0    1.16e+00
2006 05 29  2120    53884   76800      0    1.60e+00    0    1.13e+00
2006 05 29  2125    53884   77100      0    1.62e+00    0    1.12e+00
2006 05 29  2130    53884   77400      0    1.63e+00    0    1.14e+00
2006 05 29  2135    53884   77700      0    1.66e+00    0    1.16e+00
2006 05 29  2140    53884   78000      0    1.66e+00    0    1.16e+00
2006 05 29  2145    53884   78300      0    1.63e+00    0    1.14e+00
2006 05 29  2150    53884   78600      0    1.67e+00    0    1.17e+00
2006 05 29  2155    53884   78900      0    1.68e+00    0    1.18e+00
2006 05 29  2200    53884   79200      0    1.66e+00    0    1.15e+00
2006 05 29  2205    53884   79500      0    1.66e+00    0    1.16e+00
2006 05 29  2210    53884   79800      0    1.66e+00    0    1.17e+00
2006 05 29  2215    53884   80100      0    1.61e+00    0    1.12e+00
2006 05 29  2220    53884   80400      0    1.62e+00    0    1.14e+00
2006 05 29  2225    53884   80700      0    1.65e+00    0    1.15e+00
2006 05 29  2230    53884   81000      0    1.62e+00    0    1.14e+00
2006 05 29  2235    53884   81300      0    1.68e+00    0    1.18e+00
2006 05 29  2240    53884   81600      0    1.65e+00    0    1.15e+00
2006 05 29  2245    53884   81900      0    1.67e+00    0    1.16e+00
2006 05 29  2250    53884   82200      0    1.67e+00    0    1.18e+00
2006 05 29  2255    53884   82500      0    1.64e+00    0    1.14e+00
2006 05 29  2300    53884   82800      0    1.67e+00    0    1.18e+00
2006 05 29  2305    53884   83100      0    1.66e+00    0    1.15e+00
2006 05 29  2310    53884   83400      0    1.64e+00    0    1.16e+00
2006 05 29  2315    53884   83700      0    1.67e+00    0    1.16e+00
2006 05 29  2320    53884   84000      0    1.62e+00    0    1.13e+00
2006 05 29  2325    53884   84300      0    1.64e+00    0    1.15e+00
2006 05 29  2330    53884   84600      0    1.66e+00    0    1.18e+00
2006 05 29  2335    53884   84900      0    1.66e+00    0    1.17e+00
2006 05 29  2340    53884   85200      0    1.62e+00    0    1.13e+00
2006 05 29  2345    53884   85500      0    1.62e+00    0    1.15e+00
2006 05 29  2350    53884   85800      0    1.64e+00    0    1.15e+00
2006 05 29  2355    53884   86100      0    1.67e+00    0    1.16e+00
