:Data_list: 20060523_ace_sis_5m.txt
:Created: 2006 May 24 0011 UT
# Prepared by the U.S. Dept. of Commerce, NOAA, Space Environment Center.
# Please send comments and suggestions to SEC.Webmaster@noaa.gov 
# 
# Units: proton flux p/cs2-sec-ster
# Status(S): 0 = nominal data, 1 to 8 = bad data record, 9 = no data
# Missing data values: -1.00e+05
# Source: ACE Satellite - Solar Isotope Spectrometer
#
# 5-minute averaged Real-time Integral Flux of High-energy Solar Protons
# 
#                 Modified Seconds
# UT Date   Time   Julian  of the      ---- Integral Proton Flux ----
# YR MO DA  HHMM     Day     Day       S    > 10 MeV    S    > 30 MeV
#--------------------------------------------------------------------
2006 05 23  0000    53878       0      0    1.57e+00    0    1.11e+00
2006 05 23  0005    53878     300      0    1.54e+00    0    1.09e+00
2006 05 23  0010    53878     600      0    1.56e+00    0    1.10e+00
2006 05 23  0015    53878     900      0    1.59e+00    0    1.12e+00
2006 05 23  0020    53878    1200      0    1.59e+00    0    1.13e+00
2006 05 23  0025    53878    1500      0    1.53e+00    0    1.07e+00
2006 05 23  0030    53878    1800      0    1.59e+00    0    1.11e+00
2006 05 23  0035    53878    2100      0    1.58e+00    0    1.11e+00
2006 05 23  0040    53878    2400      0    1.62e+00    0    1.13e+00
2006 05 23  0045    53878    2700      0    1.61e+00    0    1.13e+00
2006 05 23  0050    53878    3000      0    1.60e+00    0    1.13e+00
2006 05 23  0055    53878    3300      0    1.57e+00    0    1.10e+00
2006 05 23  0100    53878    3600      0    1.58e+00    0    1.12e+00
2006 05 23  0105    53878    3900      0    1.54e+00    0    1.07e+00
2006 05 23  0110    53878    4200      0    1.56e+00    0    1.09e+00
2006 05 23  0115    53878    4500      0    1.56e+00    0    1.08e+00
2006 05 23  0120    53878    4800      0    1.57e+00    0    1.11e+00
2006 05 23  0125    53878    5100      0    1.58e+00    0    1.11e+00
2006 05 23  0130    53878    5400      0    1.54e+00    0    1.07e+00
2006 05 23  0135    53878    5700      0    1.55e+00    0    1.08e+00
2006 05 23  0140    53878    6000      0    1.56e+00    0    1.08e+00
2006 05 23  0145    53878    6300      0    1.57e+00    0    1.09e+00
2006 05 23  0150    53878    6600      0    1.56e+00    0    1.08e+00
2006 05 23  0155    53878    6900      0    1.60e+00    0    1.12e+00
2006 05 23  0200    53878    7200      0    1.56e+00    0    1.09e+00
2006 05 23  0205    53878    7500      0    1.57e+00    0    1.09e+00
2006 05 23  0210    53878    7800      0    1.56e+00    0    1.09e+00
2006 05 23  0215    53878    8100      0    1.58e+00    0    1.11e+00
2006 05 23  0220    53878    8400      0    1.52e+00    0    1.07e+00
2006 05 23  0225    53878    8700      0    1.53e+00    0    1.08e+00
2006 05 23  0230    53878    9000      0    1.54e+00    0    1.07e+00
2006 05 23  0235    53878    9300      0    1.54e+00    0    1.08e+00
2006 05 23  0240    53878    9600      0    1.58e+00    0    1.11e+00
2006 05 23  0245    53878    9900      0    1.58e+00    0    1.10e+00
2006 05 23  0250    53878   10200      0    1.59e+00    0    1.13e+00
2006 05 23  0255    53878   10500      0    1.61e+00    0    1.14e+00
2006 05 23  0300    53878   10800      0    1.58e+00    0    1.11e+00
2006 05 23  0305    53878   11100      0    1.57e+00    0    1.11e+00
2006 05 23  0310    53878   11400      0    1.57e+00    0    1.10e+00
2006 05 23  0315    53878   11700      0    1.57e+00    0    1.11e+00
2006 05 23  0320    53878   12000      0    1.54e+00    0    1.09e+00
2006 05 23  0325    53878   12300      0    1.55e+00    0    1.09e+00
2006 05 23  0330    53878   12600      0    1.56e+00    0    1.10e+00
2006 05 23  0335    53878   12900      0    1.58e+00    0    1.11e+00
2006 05 23  0340    53878   13200      0    1.55e+00    0    1.08e+00
2006 05 23  0345    53878   13500      0    1.59e+00    0    1.11e+00
2006 05 23  0350    53878   13800      0    1.59e+00    0    1.11e+00
2006 05 23  0355    53878   14100      0    1.57e+00    0    1.11e+00
2006 05 23  0400    53878   14400      0    1.59e+00    0    1.11e+00
2006 05 23  0405    53878   14700      0    1.59e+00    0    1.12e+00
2006 05 23  0410    53878   15000      0    1.58e+00    0    1.10e+00
2006 05 23  0415    53878   15300      0    1.57e+00    0    1.10e+00
2006 05 23  0420    53878   15600      0    1.60e+00    0    1.12e+00
2006 05 23  0425    53878   15900      0    1.48e+00    0    1.05e+00
2006 05 23  0430    53878   16200      0    1.58e+00    0    1.13e+00
2006 05 23  0435    53878   16500      0    1.57e+00    0    1.10e+00
2006 05 23  0440    53878   16800      0    1.58e+00    0    1.10e+00
2006 05 23  0445    53878   17100      0    1.54e+00    0    1.08e+00
2006 05 23  0450    53878   17400      0    1.55e+00    0    1.08e+00
2006 05 23  0455    53878   17700      0    1.57e+00    0    1.10e+00
2006 05 23  0500    53878   18000      0    1.57e+00    0    1.10e+00
2006 05 23  0505    53878   18300      0    1.57e+00    0    1.09e+00
2006 05 23  0510    53878   18600      0    1.55e+00    0    1.08e+00
2006 05 23  0515    53878   18900      0    1.56e+00    0    1.09e+00
2006 05 23  0520    53878   19200      0    1.58e+00    0    1.10e+00
2006 05 23  0525    53878   19500      0    1.63e+00    0    1.13e+00
2006 05 23  0530    53878   19800      0    1.57e+00    0    1.09e+00
2006 05 23  0535    53878   20100      0    1.60e+00    0    1.11e+00
2006 05 23  0540    53878   20400      0    1.58e+00    0    1.11e+00
2006 05 23  0545    53878   20700      0    1.57e+00    0    1.11e+00
2006 05 23  0550    53878   21000      0    1.57e+00    0    1.10e+00
2006 05 23  0555    53878   21300      0    1.60e+00    0    1.13e+00
2006 05 23  0600    53878   21600      0    1.57e+00    0    1.09e+00
2006 05 23  0605    53878   21900      0    1.59e+00    0    1.11e+00
2006 05 23  0610    53878   22200      0    1.59e+00    0    1.11e+00
2006 05 23  0615    53878   22500      0    1.55e+00    0    1.07e+00
2006 05 23  0620    53878   22800      0    1.58e+00    0    1.11e+00
2006 05 23  0625    53878   23100      0    1.61e+00    0    1.12e+00
2006 05 23  0630    53878   23400      0    1.60e+00    0    1.13e+00
2006 05 23  0635    53878   23700      0    1.57e+00    0    1.09e+00
2006 05 23  0640    53878   24000      0    1.58e+00    0    1.10e+00
2006 05 23  0645    53878   24300      0    1.58e+00    0    1.11e+00
2006 05 23  0650    53878   24600      0    1.55e+00    0    1.09e+00
2006 05 23  0655    53878   24900      0    1.57e+00    0    1.10e+00
2006 05 23  0700    53878   25200      0    1.57e+00    0    1.10e+00
2006 05 23  0705    53878   25500      0    1.56e+00    0    1.08e+00
2006 05 23  0710    53878   25800      0    1.57e+00    0    1.11e+00
2006 05 23  0715    53878   26100      0    1.57e+00    0    1.09e+00
2006 05 23  0720    53878   26400      0    1.59e+00    0    1.12e+00
2006 05 23  0725    53878   26700      0    1.57e+00    0    1.11e+00
2006 05 23  0730    53878   27000      0    1.55e+00    0    1.09e+00
2006 05 23  0735    53878   27300      0    1.60e+00    0    1.12e+00
2006 05 23  0740    53878   27600      0    1.58e+00    0    1.11e+00
2006 05 23  0745    53878   27900      0    1.58e+00    0    1.10e+00
2006 05 23  0750    53878   28200      0    1.61e+00    0    1.13e+00
2006 05 23  0755    53878   28500      0    1.59e+00    0    1.10e+00
2006 05 23  0800    53878   28800      0    1.55e+00    0    1.10e+00
2006 05 23  0805    53878   29100      0    1.59e+00    0    1.12e+00
2006 05 23  0810    53878   29400      0    1.56e+00    0    1.09e+00
2006 05 23  0815    53878   29700      0    1.58e+00    0    1.11e+00
2006 05 23  0820    53878   30000      0    1.59e+00    0    1.12e+00
2006 05 23  0825    53878   30300      0    1.61e+00    0    1.13e+00
2006 05 23  0830    53878   30600      0    1.54e+00    0    1.08e+00
2006 05 23  0835    53878   30900      0    1.59e+00    0    1.12e+00
2006 05 23  0840    53878   31200      0    1.58e+00    0    1.10e+00
2006 05 23  0845    53878   31500      0    1.57e+00    0    1.09e+00
2006 05 23  0850    53878   31800      0    1.60e+00    0    1.12e+00
2006 05 23  0855    53878   32100      0    1.61e+00    0    1.13e+00
2006 05 23  0900    53878   32400      0    1.55e+00    0    1.08e+00
2006 05 23  0905    53878   32700      0    1.58e+00    0    1.10e+00
2006 05 23  0910    53878   33000      0    1.60e+00    0    1.13e+00
2006 05 23  0915    53878   33300      0    1.59e+00    0    1.12e+00
2006 05 23  0920    53878   33600      0    1.57e+00    0    1.11e+00
2006 05 23  0925    53878   33900      0    1.59e+00    0    1.12e+00
2006 05 23  0930    53878   34200      0    1.57e+00    0    1.10e+00
2006 05 23  0935    53878   34500      0    1.60e+00    0    1.12e+00
2006 05 23  0940    53878   34800      0    1.58e+00    0    1.13e+00
2006 05 23  0945    53878   35100      0    1.57e+00    0    1.11e+00
2006 05 23  0950    53878   35400      0    1.56e+00    0    1.08e+00
2006 05 23  0955    53878   35700      0    1.57e+00    0    1.11e+00
2006 05 23  1000    53878   36000      0    1.57e+00    0    1.10e+00
2006 05 23  1005    53878   36300      0    1.54e+00    0    1.07e+00
2006 05 23  1010    53878   36600      0    1.59e+00    0    1.12e+00
2006 05 23  1015    53878   36900      0    1.56e+00    0    1.09e+00
2006 05 23  1020    53878   37200      0    1.61e+00    0    1.12e+00
2006 05 23  1025    53878   37500      0    1.59e+00    0    1.11e+00
2006 05 23  1030    53878   37800      0    1.58e+00    0    1.12e+00
2006 05 23  1035    53878   38100      0    1.60e+00    0    1.11e+00
2006 05 23  1040    53878   38400      0    1.60e+00    0    1.12e+00
2006 05 23  1045    53878   38700      0    1.57e+00    0    1.10e+00
2006 05 23  1050    53878   39000      0    1.60e+00    0    1.11e+00
2006 05 23  1055    53878   39300      0    1.61e+00    0    1.12e+00
2006 05 23  1100    53878   39600      0    1.56e+00    0    1.09e+00
2006 05 23  1105    53878   39900      0    1.58e+00    0    1.11e+00
2006 05 23  1110    53878   40200      0    1.62e+00    0    1.13e+00
2006 05 23  1115    53878   40500      0    1.57e+00    0    1.10e+00
2006 05 23  1120    53878   40800      0    1.59e+00    0    1.11e+00
2006 05 23  1125    53878   41100      0    1.56e+00    0    1.08e+00
2006 05 23  1130    53878   41400      0    1.59e+00    0    1.11e+00
2006 05 23  1135    53878   41700      0    1.61e+00    0    1.13e+00
2006 05 23  1140    53878   42000      0    1.63e+00    0    1.14e+00
2006 05 23  1145    53878   42300      0    1.58e+00    0    1.10e+00
2006 05 23  1150    53878   42600      0    1.56e+00    0    1.10e+00
2006 05 23  1155    53878   42900      0    1.58e+00    0    1.11e+00
2006 05 23  1200    53878   43200      0    1.61e+00    0    1.12e+00
2006 05 23  1205    53878   43500      0    1.58e+00    0    1.10e+00
2006 05 23  1210    53878   43800      0    1.60e+00    0    1.13e+00
2006 05 23  1215    53878   44100      0    1.58e+00    0    1.11e+00
2006 05 23  1220    53878   44400      0    1.56e+00    0    1.09e+00
2006 05 23  1225    53878   44700      0    1.56e+00    0    1.09e+00
2006 05 23  1230    53878   45000      0    1.56e+00    0    1.09e+00
2006 05 23  1235    53878   45300      0    1.59e+00    0    1.11e+00
2006 05 23  1240    53878   45600      0    1.54e+00    0    1.08e+00
2006 05 23  1245    53878   45900      0    1.59e+00    0    1.12e+00
2006 05 23  1250    53878   46200      0    1.58e+00    0    1.10e+00
2006 05 23  1255    53878   46500      0    1.60e+00    0    1.12e+00
2006 05 23  1300    53878   46800      0    1.60e+00    0    1.12e+00
2006 05 23  1305    53878   47100      0    1.62e+00    0    1.15e+00
2006 05 23  1310    53878   47400      0    1.57e+00    0    1.10e+00
2006 05 23  1315    53878   47700      0    1.60e+00    0    1.13e+00
2006 05 23  1320    53878   48000      0    1.60e+00    0    1.12e+00
2006 05 23  1325    53878   48300      0    1.54e+00    0    1.09e+00
2006 05 23  1330    53878   48600      0    1.61e+00    0    1.11e+00
2006 05 23  1335    53878   48900      0    1.61e+00    0    1.12e+00
2006 05 23  1340    53878   49200      0    1.57e+00    0    1.12e+00
2006 05 23  1345    53878   49500      0    1.56e+00    0    1.10e+00
2006 05 23  1350    53878   49800      0    1.59e+00    0    1.12e+00
2006 05 23  1355    53878   50100      0    1.57e+00    0    1.09e+00
2006 05 23  1400    53878   50400      0    1.58e+00    0    1.12e+00
2006 05 23  1405    53878   50700      0    1.55e+00    0    1.08e+00
2006 05 23  1410    53878   51000      0    1.60e+00    0    1.12e+00
2006 05 23  1415    53878   51300      0    1.57e+00    0    1.11e+00
2006 05 23  1420    53878   51600      0    1.60e+00    0    1.13e+00
2006 05 23  1425    53878   51900      0    1.59e+00    0    1.12e+00
2006 05 23  1430    53878   52200      0    1.59e+00    0    1.11e+00
2006 05 23  1435    53878   52500      0    1.57e+00    0    1.11e+00
2006 05 23  1440    53878   52800      0    1.57e+00    0    1.11e+00
2006 05 23  1445    53878   53100      0    1.63e+00    0    1.13e+00
2006 05 23  1450    53878   53400      0    1.58e+00    0    1.11e+00
2006 05 23  1455    53878   53700      0    1.59e+00    0    1.11e+00
2006 05 23  1500    53878   54000      0    1.58e+00    0    1.11e+00
2006 05 23  1505    53878   54300      0    1.60e+00    0    1.13e+00
2006 05 23  1510    53878   54600      0    1.54e+00    0    1.08e+00
2006 05 23  1515    53878   54900      0    1.58e+00    0    1.11e+00
2006 05 23  1520    53878   55200      0    1.58e+00    0    1.12e+00
2006 05 23  1525    53878   55500      0    1.60e+00    0    1.13e+00
2006 05 23  1530    53878   55800      0    1.59e+00    0    1.11e+00
2006 05 23  1535    53878   56100      0    1.59e+00    0    1.12e+00
2006 05 23  1540    53878   56400      0    1.59e+00    0    1.12e+00
2006 05 23  1545    53878   56700      0    1.59e+00    0    1.11e+00
2006 05 23  1550    53878   57000      0    1.62e+00    0    1.13e+00
2006 05 23  1555    53878   57300      0    1.56e+00    0    1.09e+00
2006 05 23  1600    53878   57600      0    1.59e+00    0    1.11e+00
2006 05 23  1605    53878   57900      0    1.57e+00    0    1.10e+00
2006 05 23  1610    53878   58200      0    1.58e+00    0    1.12e+00
2006 05 23  1615    53878   58500      0    1.57e+00    0    1.11e+00
2006 05 23  1620    53878   58800      0    1.59e+00    0    1.11e+00
2006 05 23  1625    53878   59100      0    1.59e+00    0    1.11e+00
2006 05 23  1630    53878   59400      0    1.55e+00    0    1.09e+00
2006 05 23  1635    53878   59700      0    1.53e+00    0    1.07e+00
2006 05 23  1640    53878   60000      0    1.60e+00    0    1.12e+00
2006 05 23  1645    53878   60300      0    1.58e+00    0    1.10e+00
2006 05 23  1650    53878   60600      0    1.59e+00    0    1.11e+00
2006 05 23  1655    53878   60900      0    1.58e+00    0    1.11e+00
2006 05 23  1700    53878   61200      0    1.60e+00    0    1.12e+00
2006 05 23  1705    53878   61500      0    1.59e+00    0    1.12e+00
2006 05 23  1710    53878   61800      0    1.59e+00    0    1.11e+00
2006 05 23  1715    53878   62100      0    1.61e+00    0    1.14e+00
2006 05 23  1720    53878   62400      0    1.59e+00    0    1.13e+00
2006 05 23  1725    53878   62700      0    1.61e+00    0    1.12e+00
2006 05 23  1730    53878   63000      0    1.62e+00    0    1.14e+00
2006 05 23  1735    53878   63300      0    1.59e+00    0    1.12e+00
2006 05 23  1740    53878   63600      0    1.57e+00    0    1.10e+00
2006 05 23  1745    53878   63900      0    1.57e+00    0    1.11e+00
2006 05 23  1750    53878   64200      0    1.58e+00    0    1.10e+00
2006 05 23  1755    53878   64500      0    1.57e+00    0    1.10e+00
2006 05 23  1800    53878   64800      0    1.55e+00    0    1.08e+00
2006 05 23  1805    53878   65100      0    1.59e+00    0    1.12e+00
2006 05 23  1810    53878   65400      0    1.60e+00    0    1.12e+00
2006 05 23  1815    53878   65700      0    1.56e+00    0    1.09e+00
2006 05 23  1820    53878   66000      0    1.58e+00    0    1.12e+00
2006 05 23  1825    53878   66300      0    1.58e+00    0    1.11e+00
2006 05 23  1830    53878   66600      0    1.61e+00    0    1.13e+00
2006 05 23  1835    53878   66900      0    1.62e+00    0    1.14e+00
2006 05 23  1840    53878   67200      0    1.59e+00    0    1.12e+00
2006 05 23  1845    53878   67500      0    1.57e+00    0    1.10e+00
2006 05 23  1850    53878   67800      0    1.58e+00    0    1.11e+00
2006 05 23  1855    53878   68100      0    1.56e+00    0    1.09e+00
2006 05 23  1900    53878   68400      0    1.57e+00    0    1.08e+00
2006 05 23  1905    53878   68700      0    1.58e+00    0    1.10e+00
2006 05 23  1910    53878   69000      0    1.62e+00    0    1.14e+00
2006 05 23  1915    53878   69300      0    1.60e+00    0    1.12e+00
2006 05 23  1920    53878   69600      0    1.61e+00    0    1.13e+00
2006 05 23  1925    53878   69900      0    1.59e+00    0    1.11e+00
2006 05 23  1930    53878   70200      0    1.59e+00    0    1.12e+00
2006 05 23  1935    53878   70500      0    1.61e+00    0    1.12e+00
2006 05 23  1940    53878   70800      0    1.58e+00    0    1.10e+00
2006 05 23  1945    53878   71100      0    1.57e+00    0    1.11e+00
2006 05 23  1950    53878   71400      0    1.57e+00    0    1.10e+00
2006 05 23  1955    53878   71700      0    1.60e+00    0    1.13e+00
2006 05 23  2000    53878   72000      0    1.61e+00    0    1.12e+00
2006 05 23  2005    53878   72300      0    1.60e+00    0    1.12e+00
2006 05 23  2010    53878   72600      0    1.61e+00    0    1.12e+00
2006 05 23  2015    53878   72900      0    1.61e+00    0    1.12e+00
2006 05 23  2020    53878   73200      0    1.60e+00    0    1.13e+00
2006 05 23  2025    53878   73500      0    1.60e+00    0    1.13e+00
2006 05 23  2030    53878   73800      0    1.60e+00    0    1.12e+00
2006 05 23  2035    53878   74100      0    1.59e+00    0    1.12e+00
2006 05 23  2040    53878   74400      0    1.60e+00    0    1.12e+00
2006 05 23  2045    53878   74700      0    1.59e+00    0    1.13e+00
2006 05 23  2050    53878   75000      0    1.60e+00    0    1.12e+00
2006 05 23  2055    53878   75300      0    1.59e+00    0    1.11e+00
2006 05 23  2100    53878   75600      0    1.64e+00    0    1.16e+00
2006 05 23  2105    53878   75900      0    1.59e+00    0    1.12e+00
2006 05 23  2110    53878   76200      0    1.58e+00    0    1.10e+00
2006 05 23  2115    53878   76500      0    1.60e+00    0    1.12e+00
2006 05 23  2120    53878   76800      0    1.56e+00    0    1.10e+00
2006 05 23  2125    53878   77100      0    1.61e+00    0    1.12e+00
2006 05 23  2130    53878   77400      0    1.62e+00    0    1.14e+00
2006 05 23  2135    53878   77700      0    1.58e+00    0    1.11e+00
2006 05 23  2140    53878   78000      0    1.60e+00    0    1.12e+00
2006 05 23  2145    53878   78300      0    1.60e+00    0    1.12e+00
2006 05 23  2150    53878   78600      0    1.63e+00    0    1.14e+00
2006 05 23  2155    53878   78900      0    1.56e+00    0    1.09e+00
2006 05 23  2200    53878   79200      0    1.60e+00    0    1.14e+00
2006 05 23  2205    53878   79500      0    1.59e+00    0    1.12e+00
2006 05 23  2210    53878   79800      0    1.61e+00    0    1.13e+00
2006 05 23  2215    53878   80100      0    1.59e+00    0    1.12e+00
2006 05 23  2220    53878   80400      0    1.62e+00    0    1.13e+00
2006 05 23  2225    53878   80700      0    1.58e+00    0    1.12e+00
2006 05 23  2230    53878   81000      0    1.63e+00    0    1.13e+00
2006 05 23  2235    53878   81300      0    1.66e+00    0    1.16e+00
2006 05 23  2240    53878   81600      0    1.57e+00    0    1.09e+00
2006 05 23  2245    53878   81900      0    1.62e+00    0    1.13e+00
2006 05 23  2250    53878   82200      0    1.63e+00    0    1.16e+00
2006 05 23  2255    53878   82500      0    1.61e+00    0    1.12e+00
2006 05 23  2300    53878   82800      0    1.61e+00    0    1.13e+00
2006 05 23  2305    53878   83100      0    1.62e+00    0    1.15e+00
2006 05 23  2310    53878   83400      0    1.62e+00    0    1.13e+00
2006 05 23  2315    53878   83700      0    1.57e+00    0    1.11e+00
2006 05 23  2320    53878   84000      0    1.60e+00    0    1.11e+00
2006 05 23  2325    53878   84300      0    1.60e+00    0    1.13e+00
2006 05 23  2330    53878   84600      0    1.59e+00    0    1.11e+00
2006 05 23  2335    53878   84900      0    1.60e+00    0    1.13e+00
2006 05 23  2340    53878   85200      0    1.63e+00    0    1.15e+00
2006 05 23  2345    53878   85500      0    1.59e+00    0    1.11e+00
2006 05 23  2350    53878   85800      0    1.62e+00    0    1.12e+00
2006 05 23  2355    53878   86100      0    1.62e+00    0    1.14e+00
