:Data_list: 20060218_ace_sis_5m.txt
:Created: 2006 Feb 19 0011 UT
# Prepared by the U.S. Dept. of Commerce, NOAA, Space Environment Center.
# Please send comments and suggestions to SEC.Webmaster@noaa.gov 
# 
# Units: proton flux p/cs2-sec-ster
# Status(S): 0 = nominal data, 1 to 8 = bad data record, 9 = no data
# Missing data values: -1.00e+05
# Source: ACE Satellite - Solar Isotope Spectrometer
#
# 5-minute averaged Real-time Integral Flux of High-energy Solar Protons
# 
#                 Modified Seconds
# UT Date   Time   Julian  of the      ---- Integral Proton Flux ----
# YR MO DA  HHMM     Day     Day       S    > 10 MeV    S    > 30 MeV
#--------------------------------------------------------------------
2006 02 18  0000    53784       0      0    1.48e+00    0    1.03e+00
2006 02 18  0005    53784     300      0    1.48e+00    0    1.05e+00
2006 02 18  0010    53784     600      0    1.51e+00    0    1.05e+00
2006 02 18  0015    53784     900      0    1.46e+00    0    1.02e+00
2006 02 18  0020    53784    1200      0    1.43e+00    0    1.01e+00
2006 02 18  0025    53784    1500      0    1.48e+00    0    1.04e+00
2006 02 18  0030    53784    1800      0    1.48e+00    0    1.03e+00
2006 02 18  0035    53784    2100      0    1.45e+00    0    1.02e+00
2006 02 18  0040    53784    2400      0    1.46e+00    0    1.03e+00
2006 02 18  0045    53784    2700      9   -1.00e+05    9   -1.00e+05
2006 02 18  0050    53784    3000      0    1.51e+00    0    1.06e+00
2006 02 18  0055    53784    3300      0    1.48e+00    0    1.04e+00
2006 02 18  0100    53784    3600      0    1.49e+00    0    1.04e+00
2006 02 18  0105    53784    3900      0    1.48e+00    0    1.05e+00
2006 02 18  0110    53784    4200      0    1.52e+00    0    1.08e+00
2006 02 18  0115    53784    4500      0    1.48e+00    0    1.04e+00
2006 02 18  0120    53784    4800      0    1.47e+00    0    1.03e+00
2006 02 18  0125    53784    5100      0    1.51e+00    0    1.06e+00
2006 02 18  0130    53784    5400      0    1.48e+00    0    1.04e+00
2006 02 18  0135    53784    5700      0    1.47e+00    0    1.03e+00
2006 02 18  0140    53784    6000      0    1.48e+00    0    1.04e+00
2006 02 18  0145    53784    6300      0    1.44e+00    0    1.01e+00
2006 02 18  0150    53784    6600      0    1.48e+00    0    1.05e+00
2006 02 18  0155    53784    6900      0    1.50e+00    0    1.05e+00
2006 02 18  0200    53784    7200      0    1.47e+00    0    1.04e+00
2006 02 18  0205    53784    7500      0    1.46e+00    0    1.03e+00
2006 02 18  0210    53784    7800      0    1.51e+00    0    1.06e+00
2006 02 18  0215    53784    8100      0    1.47e+00    0    1.04e+00
2006 02 18  0220    53784    8400      0    1.47e+00    0    1.02e+00
2006 02 18  0225    53784    8700      0    1.46e+00    0    1.03e+00
2006 02 18  0230    53784    9000      0    1.48e+00    0    1.03e+00
2006 02 18  0235    53784    9300      0    1.49e+00    0    1.05e+00
2006 02 18  0240    53784    9600      0    1.44e+00    0    1.02e+00
2006 02 18  0245    53784    9900      0    1.52e+00    0    1.07e+00
2006 02 18  0250    53784   10200      0    1.50e+00    0    1.05e+00
2006 02 18  0255    53784   10500      0    1.45e+00    0    1.01e+00
2006 02 18  0300    53784   10800      0    1.48e+00    0    1.04e+00
2006 02 18  0305    53784   11100      0    1.46e+00    0    1.02e+00
2006 02 18  0310    53784   11400      0    1.44e+00    0    1.01e+00
2006 02 18  0315    53784   11700      0    1.49e+00    0    1.04e+00
2006 02 18  0320    53784   12000      0    1.48e+00    0    1.04e+00
2006 02 18  0325    53784   12300      0    1.49e+00    0    1.05e+00
2006 02 18  0330    53784   12600      0    1.48e+00    0    1.03e+00
2006 02 18  0335    53784   12900      0    1.47e+00    0    1.04e+00
2006 02 18  0340    53784   13200      0    1.48e+00    0    1.05e+00
2006 02 18  0345    53784   13500      0    1.48e+00    0    1.03e+00
2006 02 18  0350    53784   13800      0    1.47e+00    0    1.03e+00
2006 02 18  0355    53784   14100      0    1.44e+00    0    1.01e+00
2006 02 18  0400    53784   14400      0    1.46e+00    0    1.02e+00
2006 02 18  0405    53784   14700      0    1.48e+00    0    1.04e+00
2006 02 18  0410    53784   15000      0    1.49e+00    0    1.04e+00
2006 02 18  0415    53784   15300      0    1.47e+00    0    1.03e+00
2006 02 18  0420    53784   15600      0    1.47e+00    0    1.03e+00
2006 02 18  0425    53784   15900      0    1.49e+00    0    1.05e+00
2006 02 18  0430    53784   16200      0    1.50e+00    0    1.04e+00
2006 02 18  0435    53784   16500      0    1.54e+00    0    1.07e+00
2006 02 18  0440    53784   16800      0    1.49e+00    0    1.06e+00
2006 02 18  0445    53784   17100      0    1.48e+00    0    1.04e+00
2006 02 18  0450    53784   17400      0    1.44e+00    0    1.01e+00
2006 02 18  0455    53784   17700      0    1.51e+00    0    1.06e+00
2006 02 18  0500    53784   18000      0    1.49e+00    0    1.05e+00
2006 02 18  0505    53784   18300      0    1.50e+00    0    1.05e+00
2006 02 18  0510    53784   18600      0    1.47e+00    0    1.04e+00
2006 02 18  0515    53784   18900      0    1.45e+00    0    1.01e+00
2006 02 18  0520    53784   19200      0    1.46e+00    0    1.02e+00
2006 02 18  0525    53784   19500      0    1.49e+00    0    1.05e+00
2006 02 18  0530    53784   19800      0    1.47e+00    0    1.03e+00
2006 02 18  0535    53784   20100      0    1.45e+00    0    1.01e+00
2006 02 18  0540    53784   20400      0    1.49e+00    0    1.04e+00
2006 02 18  0545    53784   20700      0    1.51e+00    0    1.06e+00
2006 02 18  0550    53784   21000      0    1.50e+00    0    1.05e+00
2006 02 18  0555    53784   21300      0    1.48e+00    0    1.04e+00
2006 02 18  0600    53784   21600      0    1.50e+00    0    1.06e+00
2006 02 18  0605    53784   21900      0    1.46e+00    0    1.03e+00
2006 02 18  0610    53784   22200      0    1.48e+00    0    1.04e+00
2006 02 18  0615    53784   22500      0    1.49e+00    0    1.04e+00
2006 02 18  0620    53784   22800      0    1.51e+00    0    1.05e+00
2006 02 18  0625    53784   23100      0    1.49e+00    0    1.05e+00
2006 02 18  0630    53784   23400      0    1.51e+00    0    1.07e+00
2006 02 18  0635    53784   23700      0    1.53e+00    0    1.08e+00
2006 02 18  0640    53784   24000      0    1.49e+00    0    1.06e+00
2006 02 18  0645    53784   24300      0    1.52e+00    0    1.06e+00
2006 02 18  0650    53784   24600      0    1.47e+00    0    1.03e+00
2006 02 18  0655    53784   24900      0    1.48e+00    0    1.05e+00
2006 02 18  0700    53784   25200      0    1.48e+00    0    1.04e+00
2006 02 18  0705    53784   25500      0    1.49e+00    0    1.04e+00
2006 02 18  0710    53784   25800      0    1.49e+00    0    1.06e+00
2006 02 18  0715    53784   26100      0    1.50e+00    0    1.06e+00
2006 02 18  0720    53784   26400      0    1.47e+00    0    1.03e+00
2006 02 18  0725    53784   26700      0    1.52e+00    0    1.07e+00
2006 02 18  0730    53784   27000      0    1.50e+00    0    1.06e+00
2006 02 18  0735    53784   27300      0    1.49e+00    0    1.06e+00
2006 02 18  0740    53784   27600      0    1.48e+00    0    1.05e+00
2006 02 18  0745    53784   27900      0    1.48e+00    0    1.04e+00
2006 02 18  0750    53784   28200      0    1.50e+00    0    1.04e+00
2006 02 18  0755    53784   28500      0    1.49e+00    0    1.04e+00
2006 02 18  0800    53784   28800      0    1.49e+00    0    1.06e+00
2006 02 18  0805    53784   29100      0    1.52e+00    0    1.07e+00
2006 02 18  0810    53784   29400      0    1.51e+00    0    1.05e+00
2006 02 18  0815    53784   29700      0    1.49e+00    0    1.05e+00
2006 02 18  0820    53784   30000      0    1.48e+00    0    1.03e+00
2006 02 18  0825    53784   30300      0    1.50e+00    0    1.05e+00
2006 02 18  0830    53784   30600      0    1.52e+00    0    1.08e+00
2006 02 18  0835    53784   30900      0    1.47e+00    0    1.04e+00
2006 02 18  0840    53784   31200      0    1.49e+00    0    1.05e+00
2006 02 18  0845    53784   31500      0    1.49e+00    0    1.06e+00
2006 02 18  0850    53784   31800      0    1.50e+00    0    1.06e+00
2006 02 18  0855    53784   32100      0    1.48e+00    0    1.05e+00
2006 02 18  0900    53784   32400      0    1.49e+00    0    1.05e+00
2006 02 18  0905    53784   32700      0    1.51e+00    0    1.05e+00
2006 02 18  0910    53784   33000      0    1.53e+00    0    1.07e+00
2006 02 18  0915    53784   33300      0    1.51e+00    0    1.06e+00
2006 02 18  0920    53784   33600      0    1.49e+00    0    1.04e+00
2006 02 18  0925    53784   33900      0    1.50e+00    0    1.06e+00
2006 02 18  0930    53784   34200      0    1.51e+00    0    1.07e+00
2006 02 18  0935    53784   34500      0    1.51e+00    0    1.07e+00
2006 02 18  0940    53784   34800      0    1.51e+00    0    1.05e+00
2006 02 18  0945    53784   35100      0    1.51e+00    0    1.07e+00
2006 02 18  0950    53784   35400      0    1.53e+00    0    1.07e+00
2006 02 18  0955    53784   35700      0    1.49e+00    0    1.04e+00
2006 02 18  1000    53784   36000      0    1.50e+00    0    1.05e+00
2006 02 18  1005    53784   36300      0    1.49e+00    0    1.03e+00
2006 02 18  1010    53784   36600      0    1.52e+00    0    1.06e+00
2006 02 18  1015    53784   36900      0    1.51e+00    0    1.06e+00
2006 02 18  1020    53784   37200      0    1.49e+00    0    1.05e+00
2006 02 18  1025    53784   37500      0    1.50e+00    0    1.05e+00
2006 02 18  1030    53784   37800      0    1.50e+00    0    1.06e+00
2006 02 18  1035    53784   38100      0    1.49e+00    0    1.04e+00
2006 02 18  1040    53784   38400      0    1.48e+00    0    1.05e+00
2006 02 18  1045    53784   38700      0    1.47e+00    0    1.04e+00
2006 02 18  1050    53784   39000      0    1.46e+00    0    1.04e+00
2006 02 18  1055    53784   39300      0    1.52e+00    0    1.07e+00
2006 02 18  1100    53784   39600      0    1.50e+00    0    1.06e+00
2006 02 18  1105    53784   39900      0    1.51e+00    0    1.05e+00
2006 02 18  1110    53784   40200      0    1.47e+00    0    1.04e+00
2006 02 18  1115    53784   40500      0    1.49e+00    0    1.04e+00
2006 02 18  1120    53784   40800      0    1.48e+00    0    1.04e+00
2006 02 18  1125    53784   41100      0    1.50e+00    0    1.06e+00
2006 02 18  1130    53784   41400      0    1.50e+00    0    1.05e+00
2006 02 18  1135    53784   41700      0    1.49e+00    0    1.05e+00
2006 02 18  1140    53784   42000      0    1.51e+00    0    1.07e+00
2006 02 18  1145    53784   42300      0    1.49e+00    0    1.04e+00
2006 02 18  1150    53784   42600      0    1.50e+00    0    1.05e+00
2006 02 18  1155    53784   42900      0    1.49e+00    0    1.05e+00
2006 02 18  1200    53784   43200      0    1.48e+00    0    1.04e+00
2006 02 18  1205    53784   43500      0    1.51e+00    0    1.05e+00
2006 02 18  1210    53784   43800      0    1.49e+00    0    1.05e+00
2006 02 18  1215    53784   44100      0    1.52e+00    0    1.05e+00
2006 02 18  1220    53784   44400      0    1.51e+00    0    1.05e+00
2006 02 18  1225    53784   44700      0    1.49e+00    0    1.04e+00
2006 02 18  1230    53784   45000      0    1.54e+00    0    1.08e+00
2006 02 18  1235    53784   45300      0    1.51e+00    0    1.06e+00
2006 02 18  1240    53784   45600      0    1.50e+00    0    1.07e+00
2006 02 18  1245    53784   45900      0    1.52e+00    0    1.06e+00
2006 02 18  1250    53784   46200      0    1.51e+00    0    1.06e+00
2006 02 18  1255    53784   46500      0    1.49e+00    0    1.04e+00
2006 02 18  1300    53784   46800      0    1.50e+00    0    1.05e+00
2006 02 18  1305    53784   47100      0    1.46e+00    0    1.03e+00
2006 02 18  1310    53784   47400      0    1.52e+00    0    1.07e+00
2006 02 18  1315    53784   47700      0    1.48e+00    0    1.05e+00
2006 02 18  1320    53784   48000      0    1.49e+00    0    1.06e+00
2006 02 18  1325    53784   48300      0    1.50e+00    0    1.05e+00
2006 02 18  1330    53784   48600      0    1.48e+00    0    1.04e+00
2006 02 18  1335    53784   48900      0    1.53e+00    0    1.07e+00
2006 02 18  1340    53784   49200      0    1.50e+00    0    1.04e+00
2006 02 18  1345    53784   49500      0    1.51e+00    0    1.07e+00
2006 02 18  1350    53784   49800      0    1.45e+00    0    1.02e+00
2006 02 18  1355    53784   50100      0    1.48e+00    0    1.05e+00
2006 02 18  1400    53784   50400      0    1.53e+00    0    1.08e+00
2006 02 18  1405    53784   50700      0    1.52e+00    0    1.07e+00
2006 02 18  1410    53784   51000      0    1.51e+00    0    1.07e+00
2006 02 18  1415    53784   51300      0    1.47e+00    0    1.03e+00
2006 02 18  1420    53784   51600      0    1.51e+00    0    1.05e+00
2006 02 18  1425    53784   51900      0    1.44e+00    0    1.01e+00
2006 02 18  1430    53784   52200      0    1.48e+00    0    1.04e+00
2006 02 18  1435    53784   52500      0    1.54e+00    0    1.07e+00
2006 02 18  1440    53784   52800      0    1.51e+00    0    1.07e+00
2006 02 18  1445    53784   53100      0    1.51e+00    0    1.06e+00
2006 02 18  1450    53784   53400      0    1.47e+00    0    1.02e+00
2006 02 18  1455    53784   53700      0    1.50e+00    0    1.06e+00
2006 02 18  1500    53784   54000      0    1.49e+00    0    1.04e+00
2006 02 18  1505    53784   54300      0    1.50e+00    0    1.05e+00
2006 02 18  1510    53784   54600      0    1.50e+00    0    1.06e+00
2006 02 18  1515    53784   54900      0    1.49e+00    0    1.04e+00
2006 02 18  1520    53784   55200      0    1.47e+00    0    1.03e+00
2006 02 18  1525    53784   55500      0    1.43e+00    0    1.00e+00
2006 02 18  1530    53784   55800      0    1.50e+00    0    1.07e+00
2006 02 18  1535    53784   56100      0    1.51e+00    0    1.06e+00
2006 02 18  1540    53784   56400      0    1.53e+00    0    1.08e+00
2006 02 18  1545    53784   56700      0    1.49e+00    0    1.04e+00
2006 02 18  1550    53784   57000      0    1.48e+00    0    1.04e+00
2006 02 18  1555    53784   57300      0    1.49e+00    0    1.04e+00
2006 02 18  1600    53784   57600      0    1.47e+00    0    1.04e+00
2006 02 18  1605    53784   57900      0    1.48e+00    0    1.04e+00
2006 02 18  1610    53784   58200      0    1.50e+00    0    1.06e+00
2006 02 18  1615    53784   58500      0    1.50e+00    0    1.05e+00
2006 02 18  1620    53784   58800      0    1.50e+00    0    1.05e+00
2006 02 18  1625    53784   59100      0    1.50e+00    0    1.05e+00
2006 02 18  1630    53784   59400      0    1.44e+00    0    1.00e+00
2006 02 18  1635    53784   59700      0    1.48e+00    0    1.03e+00
2006 02 18  1640    53784   60000      0    1.50e+00    0    1.06e+00
2006 02 18  1645    53784   60300      0    1.49e+00    0    1.05e+00
2006 02 18  1650    53784   60600      9   -1.00e+05    9   -1.00e+05
2006 02 18  1655    53784   60900      9   -1.00e+05    9   -1.00e+05
2006 02 18  1700    53784   61200      9   -1.00e+05    9   -1.00e+05
2006 02 18  1705    53784   61500      9   -1.00e+05    9   -1.00e+05
2006 02 18  1710    53784   61800      9   -1.00e+05    9   -1.00e+05
2006 02 18  1715    53784   62100      9   -1.00e+05    9   -1.00e+05
2006 02 18  1720    53784   62400      9   -1.00e+05    9   -1.00e+05
2006 02 18  1725    53784   62700      9   -1.00e+05    9   -1.00e+05
2006 02 18  1730    53784   63000      9   -1.00e+05    9   -1.00e+05
2006 02 18  1735    53784   63300      9   -1.00e+05    9   -1.00e+05
2006 02 18  1740    53784   63600      9   -1.00e+05    9   -1.00e+05
2006 02 18  1745    53784   63900      9   -1.00e+05    9   -1.00e+05
2006 02 18  1750    53784   64200      9   -1.00e+05    9   -1.00e+05
2006 02 18  1755    53784   64500      9   -1.00e+05    9   -1.00e+05
2006 02 18  1800    53784   64800      0    1.53e+00    0    1.07e+00
2006 02 18  1805    53784   65100      0    1.48e+00    0    1.05e+00
2006 02 18  1810    53784   65400      0    1.52e+00    0    1.06e+00
2006 02 18  1815    53784   65700      0    1.50e+00    0    1.07e+00
2006 02 18  1820    53784   66000      0    1.47e+00    0    1.03e+00
2006 02 18  1825    53784   66300      0    1.49e+00    0    1.04e+00
2006 02 18  1830    53784   66600      0    1.47e+00    0    1.03e+00
2006 02 18  1835    53784   66900      0    1.49e+00    0    1.05e+00
2006 02 18  1840    53784   67200      0    1.49e+00    0    1.05e+00
2006 02 18  1845    53784   67500      0    1.48e+00    0    1.05e+00
2006 02 18  1850    53784   67800      0    1.52e+00    0    1.07e+00
2006 02 18  1855    53784   68100      0    1.49e+00    0    1.04e+00
2006 02 18  1900    53784   68400      0    1.49e+00    0    1.05e+00
2006 02 18  1905    53784   68700      0    1.48e+00    0    1.05e+00
2006 02 18  1910    53784   69000      0    1.49e+00    0    1.05e+00
2006 02 18  1915    53784   69300      0    1.48e+00    0    1.04e+00
2006 02 18  1920    53784   69600      0    1.46e+00    0    1.02e+00
2006 02 18  1925    53784   69900      0    1.52e+00    0    1.08e+00
2006 02 18  1930    53784   70200      0    1.48e+00    0    1.04e+00
2006 02 18  1935    53784   70500      0    1.48e+00    0    1.04e+00
2006 02 18  1940    53784   70800      0    1.48e+00    0    1.03e+00
2006 02 18  1945    53784   71100      0    1.58e+00    0    1.14e+00
2006 02 18  1950    53784   71400      0    1.49e+00    0    1.04e+00
2006 02 18  1955    53784   71700      0    1.45e+00    0    1.01e+00
2006 02 18  2000    53784   72000      0    1.48e+00    0    1.04e+00
2006 02 18  2005    53784   72300      0    1.42e+00    0    1.00e+00
2006 02 18  2010    53784   72600      0    1.51e+00    0    1.07e+00
2006 02 18  2015    53784   72900      0    1.50e+00    0    1.05e+00
2006 02 18  2020    53784   73200      0    1.51e+00    0    1.06e+00
2006 02 18  2025    53784   73500      0    1.54e+00    0    1.09e+00
2006 02 18  2030    53784   73800      0    1.48e+00    0    1.04e+00
2006 02 18  2035    53784   74100      0    1.50e+00    0    1.05e+00
2006 02 18  2040    53784   74400      0    1.50e+00    0    1.05e+00
2006 02 18  2045    53784   74700      0    1.47e+00    0    1.04e+00
2006 02 18  2050    53784   75000      0    1.51e+00    0    1.07e+00
2006 02 18  2055    53784   75300      0    1.47e+00    0    1.03e+00
2006 02 18  2100    53784   75600      0    1.53e+00    0    1.06e+00
2006 02 18  2105    53784   75900      0    1.44e+00    0    1.01e+00
2006 02 18  2110    53784   76200      0    1.51e+00    0    1.06e+00
2006 02 18  2115    53784   76500      0    1.48e+00    0    1.05e+00
2006 02 18  2120    53784   76800      0    1.52e+00    0    1.07e+00
2006 02 18  2125    53784   77100      0    1.45e+00    0    1.03e+00
2006 02 18  2130    53784   77400      0    1.49e+00    0    1.05e+00
2006 02 18  2135    53784   77700      0    1.51e+00    0    1.05e+00
2006 02 18  2140    53784   78000      0    1.48e+00    0    1.03e+00
2006 02 18  2145    53784   78300      0    1.50e+00    0    1.05e+00
2006 02 18  2150    53784   78600      0    1.52e+00    0    1.07e+00
2006 02 18  2155    53784   78900      0    1.53e+00    0    1.08e+00
2006 02 18  2200    53784   79200      0    1.49e+00    0    1.03e+00
2006 02 18  2205    53784   79500      0    1.54e+00    0    1.08e+00
2006 02 18  2210    53784   79800      0    1.51e+00    0    1.06e+00
2006 02 18  2215    53784   80100      0    1.49e+00    0    1.05e+00
2006 02 18  2220    53784   80400      0    1.50e+00    0    1.06e+00
2006 02 18  2225    53784   80700      0    1.51e+00    0    1.06e+00
2006 02 18  2230    53784   81000      0    1.52e+00    0    1.07e+00
2006 02 18  2235    53784   81300      0    1.54e+00    0    1.09e+00
2006 02 18  2240    53784   81600      0    1.48e+00    0    1.04e+00
2006 02 18  2245    53784   81900      0    1.49e+00    0    1.04e+00
2006 02 18  2250    53784   82200      0    1.50e+00    0    1.05e+00
2006 02 18  2255    53784   82500      0    1.50e+00    0    1.05e+00
2006 02 18  2300    53784   82800      0    1.49e+00    0    1.05e+00
2006 02 18  2305    53784   83100      0    1.53e+00    0    1.08e+00
2006 02 18  2310    53784   83400      0    1.48e+00    0    1.04e+00
2006 02 18  2315    53784   83700      0    1.49e+00    0    1.04e+00
2006 02 18  2320    53784   84000      0    1.50e+00    0    1.05e+00
2006 02 18  2325    53784   84300      0    1.51e+00    0    1.06e+00
2006 02 18  2330    53784   84600      0    1.51e+00    0    1.06e+00
2006 02 18  2335    53784   84900      0    1.51e+00    0    1.05e+00
2006 02 18  2340    53784   85200      0    1.50e+00    0    1.07e+00
2006 02 18  2345    53784   85500      0    1.54e+00    0    1.09e+00
2006 02 18  2350    53784   85800      0    1.52e+00    0    1.06e+00
2006 02 18  2355    53784   86100      0    1.50e+00    0    1.06e+00
