:Data_list: 20061126_ace_sis_5m.txt
:Created: 2006 Nov 27 0011 UT
# Prepared by the U.S. Dept. of Commerce, NOAA, Space Environment Center.
# Please send comments and suggestions to SEC.Webmaster@noaa.gov 
# 
# Units: proton flux p/cs2-sec-ster
# Status(S): 0 = nominal data, 1 to 8 = bad data record, 9 = no data
# Missing data values: -1.00e+05
# Source: ACE Satellite - Solar Isotope Spectrometer
#
# 5-minute averaged Real-time Integral Flux of High-energy Solar Protons
# 
#                 Modified Seconds
# UT Date   Time   Julian  of the      ---- Integral Proton Flux ----
# YR MO DA  HHMM     Day     Day       S    > 10 MeV    S    > 30 MeV
#--------------------------------------------------------------------
2006 11 26  0000    54065       0      0    1.75e+00    0    1.23e+00
2006 11 26  0005    54065     300      0    1.74e+00    0    1.22e+00
2006 11 26  0010    54065     600      0    1.73e+00    0    1.21e+00
2006 11 26  0015    54065     900      0    1.76e+00    0    1.23e+00
2006 11 26  0020    54065    1200      0    1.72e+00    0    1.21e+00
2006 11 26  0025    54065    1500      0    1.73e+00    0    1.20e+00
2006 11 26  0030    54065    1800      0    1.71e+00    0    1.19e+00
2006 11 26  0035    54065    2100      0    1.74e+00    0    1.22e+00
2006 11 26  0040    54065    2400      0    1.71e+00    0    1.20e+00
2006 11 26  0045    54065    2700      0    1.75e+00    0    1.23e+00
2006 11 26  0050    54065    3000      9   -1.00e+05    9   -1.00e+05
2006 11 26  0055    54065    3300      9   -1.00e+05    9   -1.00e+05
2006 11 26  0100    54065    3600      0    1.75e+00    0    1.25e+00
2006 11 26  0105    54065    3900      0    1.63e+00    0    1.13e+00
2006 11 26  0110    54065    4200      0    1.71e+00    0    1.20e+00
2006 11 26  0115    54065    4500      9   -1.00e+05    9   -1.00e+05
2006 11 26  0120    54065    4800      0    1.71e+00    0    1.21e+00
2006 11 26  0125    54065    5100      0    1.75e+00    0    1.23e+00
2006 11 26  0130    54065    5400      9   -1.00e+05    9   -1.00e+05
2006 11 26  0135    54065    5700      9   -1.00e+05    9   -1.00e+05
2006 11 26  0140    54065    6000      9   -1.00e+05    9   -1.00e+05
2006 11 26  0145    54065    6300      9   -1.00e+05    9   -1.00e+05
2006 11 26  0150    54065    6600      9   -1.00e+05    9   -1.00e+05
2006 11 26  0155    54065    6900      0    1.73e+00    0    1.21e+00
2006 11 26  0200    54065    7200      0    1.72e+00    0    1.22e+00
2006 11 26  0205    54065    7500      0    1.74e+00    0    1.21e+00
2006 11 26  0210    54065    7800      0    1.72e+00    0    1.21e+00
2006 11 26  0215    54065    8100      0    1.73e+00    0    1.22e+00
2006 11 26  0220    54065    8400      0    1.72e+00    0    1.20e+00
2006 11 26  0225    54065    8700      0    1.73e+00    0    1.22e+00
2006 11 26  0230    54065    9000      0    1.73e+00    0    1.21e+00
2006 11 26  0235    54065    9300      0    1.71e+00    0    1.20e+00
2006 11 26  0240    54065    9600      0    1.70e+00    0    1.21e+00
2006 11 26  0245    54065    9900      0    1.72e+00    0    1.20e+00
2006 11 26  0250    54065   10200      0    1.70e+00    0    1.18e+00
2006 11 26  0255    54065   10500      0    1.69e+00    0    1.19e+00
2006 11 26  0300    54065   10800      0    1.71e+00    0    1.20e+00
2006 11 26  0305    54065   11100      0    1.69e+00    0    1.17e+00
2006 11 26  0310    54065   11400      0    1.72e+00    0    1.21e+00
2006 11 26  0315    54065   11700      0    1.75e+00    0    1.22e+00
2006 11 26  0320    54065   12000      0    1.72e+00    0    1.21e+00
2006 11 26  0325    54065   12300      0    1.70e+00    0    1.19e+00
2006 11 26  0330    54065   12600      0    1.78e+00    0    1.24e+00
2006 11 26  0335    54065   12900      0    1.76e+00    0    1.24e+00
2006 11 26  0340    54065   13200      0    1.73e+00    0    1.21e+00
2006 11 26  0345    54065   13500      0    1.71e+00    0    1.19e+00
2006 11 26  0350    54065   13800      0    1.69e+00    0    1.18e+00
2006 11 26  0355    54065   14100      0    1.75e+00    0    1.23e+00
2006 11 26  0400    54065   14400      0    1.74e+00    0    1.21e+00
2006 11 26  0405    54065   14700      0    1.70e+00    0    1.18e+00
2006 11 26  0410    54065   15000      0    1.74e+00    0    1.22e+00
2006 11 26  0415    54065   15300      0    1.69e+00    0    1.19e+00
2006 11 26  0420    54065   15600      0    1.71e+00    0    1.19e+00
2006 11 26  0425    54065   15900      0    1.69e+00    0    1.19e+00
2006 11 26  0430    54065   16200      0    1.69e+00    0    1.19e+00
2006 11 26  0435    54065   16500      0    1.70e+00    0    1.19e+00
2006 11 26  0440    54065   16800      0    1.70e+00    0    1.19e+00
2006 11 26  0445    54065   17100      0    1.68e+00    0    1.19e+00
2006 11 26  0450    54065   17400      0    1.69e+00    0    1.19e+00
2006 11 26  0455    54065   17700      0    1.73e+00    0    1.22e+00
2006 11 26  0500    54065   18000      0    1.73e+00    0    1.22e+00
2006 11 26  0505    54065   18300      0    1.74e+00    0    1.23e+00
2006 11 26  0510    54065   18600      0    1.71e+00    0    1.20e+00
2006 11 26  0515    54065   18900      0    1.74e+00    0    1.21e+00
2006 11 26  0520    54065   19200      0    1.74e+00    0    1.22e+00
2006 11 26  0525    54065   19500      0    1.69e+00    0    1.18e+00
2006 11 26  0530    54065   19800      0    1.73e+00    0    1.22e+00
2006 11 26  0535    54065   20100      0    1.72e+00    0    1.21e+00
2006 11 26  0540    54065   20400      0    1.71e+00    0    1.20e+00
2006 11 26  0545    54065   20700      0    1.68e+00    0    1.18e+00
2006 11 26  0550    54065   21000      0    1.71e+00    0    1.21e+00
2006 11 26  0555    54065   21300      0    1.75e+00    0    1.22e+00
2006 11 26  0600    54065   21600      9   -1.00e+05    9   -1.00e+05
2006 11 26  0605    54065   21900      9   -1.00e+05    9   -1.00e+05
2006 11 26  0610    54065   22200      9   -1.00e+05    9   -1.00e+05
2006 11 26  0615    54065   22500      9   -1.00e+05    9   -1.00e+05
2006 11 26  0620    54065   22800      9   -1.00e+05    9   -1.00e+05
2006 11 26  0625    54065   23100      9   -1.00e+05    9   -1.00e+05
2006 11 26  0630    54065   23400      9   -1.00e+05    9   -1.00e+05
2006 11 26  0635    54065   23700      9   -1.00e+05    9   -1.00e+05
2006 11 26  0640    54065   24000      9   -1.00e+05    9   -1.00e+05
2006 11 26  0645    54065   24300      9   -1.00e+05    9   -1.00e+05
2006 11 26  0650    54065   24600      9   -1.00e+05    9   -1.00e+05
2006 11 26  0655    54065   24900      9   -1.00e+05    9   -1.00e+05
2006 11 26  0700    54065   25200      9   -1.00e+05    9   -1.00e+05
2006 11 26  0705    54065   25500      0    1.67e+00    0    1.17e+00
2006 11 26  0710    54065   25800      0    1.74e+00    0    1.22e+00
2006 11 26  0715    54065   26100      0    1.71e+00    0    1.20e+00
2006 11 26  0720    54065   26400      0    1.70e+00    0    1.19e+00
2006 11 26  0725    54065   26700      0    1.69e+00    0    1.19e+00
2006 11 26  0730    54065   27000      0    1.75e+00    0    1.23e+00
2006 11 26  0735    54065   27300      0    1.68e+00    0    1.17e+00
2006 11 26  0740    54065   27600      0    1.70e+00    0    1.18e+00
2006 11 26  0745    54065   27900      0    1.72e+00    0    1.21e+00
2006 11 26  0750    54065   28200      0    1.69e+00    0    1.19e+00
2006 11 26  0755    54065   28500      0    1.73e+00    0    1.21e+00
2006 11 26  0800    54065   28800      0    1.70e+00    0    1.19e+00
2006 11 26  0805    54065   29100      0    1.71e+00    0    1.20e+00
2006 11 26  0810    54065   29400      0    1.71e+00    0    1.20e+00
2006 11 26  0815    54065   29700      0    1.72e+00    0    1.20e+00
2006 11 26  0820    54065   30000      0    1.73e+00    0    1.22e+00
2006 11 26  0825    54065   30300      0    1.73e+00    0    1.23e+00
2006 11 26  0830    54065   30600      0    1.70e+00    0    1.18e+00
2006 11 26  0835    54065   30900      0    1.75e+00    0    1.23e+00
2006 11 26  0840    54065   31200      0    1.71e+00    0    1.19e+00
2006 11 26  0845    54065   31500      0    1.72e+00    0    1.22e+00
2006 11 26  0850    54065   31800      0    1.73e+00    0    1.21e+00
2006 11 26  0855    54065   32100      0    1.71e+00    0    1.21e+00
2006 11 26  0900    54065   32400      0    1.73e+00    0    1.21e+00
2006 11 26  0905    54065   32700      0    1.72e+00    0    1.22e+00
2006 11 26  0910    54065   33000      0    1.72e+00    0    1.20e+00
2006 11 26  0915    54065   33300      0    1.72e+00    0    1.19e+00
2006 11 26  0920    54065   33600      0    1.73e+00    0    1.21e+00
2006 11 26  0925    54065   33900      0    1.72e+00    0    1.20e+00
2006 11 26  0930    54065   34200      0    1.71e+00    0    1.19e+00
2006 11 26  0935    54065   34500      0    1.71e+00    0    1.19e+00
2006 11 26  0940    54065   34800      0    1.72e+00    0    1.21e+00
2006 11 26  0945    54065   35100      0    1.71e+00    0    1.21e+00
2006 11 26  0950    54065   35400      0    1.70e+00    0    1.20e+00
2006 11 26  0955    54065   35700      0    1.70e+00    0    1.20e+00
2006 11 26  1000    54065   36000      0    1.71e+00    0    1.20e+00
2006 11 26  1005    54065   36300      0    1.69e+00    0    1.17e+00
2006 11 26  1010    54065   36600      0    1.72e+00    0    1.20e+00
2006 11 26  1015    54065   36900      0    1.71e+00    0    1.21e+00
2006 11 26  1020    54065   37200      0    1.73e+00    0    1.21e+00
2006 11 26  1025    54065   37500      0    1.74e+00    0    1.22e+00
2006 11 26  1030    54065   37800      0    1.68e+00    0    1.17e+00
2006 11 26  1035    54065   38100      0    1.72e+00    0    1.21e+00
2006 11 26  1040    54065   38400      0    1.74e+00    0    1.20e+00
2006 11 26  1045    54065   38700      0    1.73e+00    0    1.21e+00
2006 11 26  1050    54065   39000      0    1.71e+00    0    1.20e+00
2006 11 26  1055    54065   39300      0    1.72e+00    0    1.21e+00
2006 11 26  1100    54065   39600      0    1.72e+00    0    1.20e+00
2006 11 26  1105    54065   39900      0    1.71e+00    0    1.20e+00
2006 11 26  1110    54065   40200      0    1.76e+00    0    1.23e+00
2006 11 26  1115    54065   40500      0    1.72e+00    0    1.20e+00
2006 11 26  1120    54065   40800      0    1.71e+00    0    1.20e+00
2006 11 26  1125    54065   41100      0    1.68e+00    0    1.18e+00
2006 11 26  1130    54065   41400      0    1.69e+00    0    1.19e+00
2006 11 26  1135    54065   41700      0    1.71e+00    0    1.20e+00
2006 11 26  1140    54065   42000      0    1.69e+00    0    1.19e+00
2006 11 26  1145    54065   42300      0    1.71e+00    0    1.21e+00
2006 11 26  1150    54065   42600      0    1.69e+00    0    1.18e+00
2006 11 26  1155    54065   42900      0    1.70e+00    0    1.18e+00
2006 11 26  1200    54065   43200      0    1.76e+00    0    1.23e+00
2006 11 26  1205    54065   43500      0    1.75e+00    0    1.23e+00
2006 11 26  1210    54065   43800      0    1.72e+00    0    1.20e+00
2006 11 26  1215    54065   44100      0    1.71e+00    0    1.20e+00
2006 11 26  1220    54065   44400      0    1.71e+00    0    1.19e+00
2006 11 26  1225    54065   44700      0    1.69e+00    0    1.19e+00
2006 11 26  1230    54065   45000      0    1.67e+00    0    1.18e+00
2006 11 26  1235    54065   45300      0    1.69e+00    0    1.19e+00
2006 11 26  1240    54065   45600      0    1.69e+00    0    1.18e+00
2006 11 26  1245    54065   45900      0    1.72e+00    0    1.19e+00
2006 11 26  1250    54065   46200      0    1.72e+00    0    1.21e+00
2006 11 26  1255    54065   46500      0    1.75e+00    0    1.23e+00
2006 11 26  1300    54065   46800      0    1.71e+00    0    1.20e+00
2006 11 26  1305    54065   47100      0    1.67e+00    0    1.17e+00
2006 11 26  1310    54065   47400      0    1.73e+00    0    1.22e+00
2006 11 26  1315    54065   47700      0    1.76e+00    0    1.24e+00
2006 11 26  1320    54065   48000      0    1.72e+00    0    1.21e+00
2006 11 26  1325    54065   48300      0    1.70e+00    0    1.20e+00
2006 11 26  1330    54065   48600      0    1.70e+00    0    1.18e+00
2006 11 26  1335    54065   48900      0    1.68e+00    0    1.18e+00
2006 11 26  1340    54065   49200      0    1.72e+00    0    1.20e+00
2006 11 26  1345    54065   49500      0    1.66e+00    0    1.16e+00
2006 11 26  1350    54065   49800      0    1.74e+00    0    1.23e+00
2006 11 26  1355    54065   50100      0    1.74e+00    0    1.21e+00
2006 11 26  1400    54065   50400      0    1.74e+00    0    1.22e+00
2006 11 26  1405    54065   50700      0    1.70e+00    0    1.20e+00
2006 11 26  1410    54065   51000      0    1.70e+00    0    1.18e+00
2006 11 26  1415    54065   51300      0    1.74e+00    0    1.22e+00
2006 11 26  1420    54065   51600      0    1.70e+00    0    1.20e+00
2006 11 26  1425    54065   51900      0    1.73e+00    0    1.22e+00
2006 11 26  1430    54065   52200      0    1.69e+00    0    1.18e+00
2006 11 26  1435    54065   52500      0    1.66e+00    0    1.17e+00
2006 11 26  1440    54065   52800      0    1.67e+00    0    1.16e+00
2006 11 26  1445    54065   53100      0    1.70e+00    0    1.18e+00
2006 11 26  1450    54065   53400      0    1.69e+00    0    1.18e+00
2006 11 26  1455    54065   53700      0    1.67e+00    0    1.17e+00
2006 11 26  1500    54065   54000      0    1.74e+00    0    1.22e+00
2006 11 26  1505    54065   54300      0    1.68e+00    0    1.18e+00
2006 11 26  1510    54065   54600      0    1.69e+00    0    1.18e+00
2006 11 26  1515    54065   54900      0    1.67e+00    0    1.17e+00
2006 11 26  1520    54065   55200      0    1.70e+00    0    1.19e+00
2006 11 26  1525    54065   55500      0    1.71e+00    0    1.19e+00
2006 11 26  1530    54065   55800      0    1.64e+00    0    1.14e+00
2006 11 26  1535    54065   56100      0    1.72e+00    0    1.21e+00
2006 11 26  1540    54065   56400      0    1.66e+00    0    1.16e+00
2006 11 26  1545    54065   56700      0    1.71e+00    0    1.20e+00
2006 11 26  1550    54065   57000      0    1.68e+00    0    1.19e+00
2006 11 26  1555    54065   57300      0    1.71e+00    0    1.20e+00
2006 11 26  1600    54065   57600      0    1.74e+00    0    1.22e+00
2006 11 26  1605    54065   57900      0    1.65e+00    0    1.16e+00
2006 11 26  1610    54065   58200      0    1.68e+00    0    1.18e+00
2006 11 26  1615    54065   58500      0    1.73e+00    0    1.22e+00
2006 11 26  1620    54065   58800      0    1.69e+00    0    1.19e+00
2006 11 26  1625    54065   59100      0    1.68e+00    0    1.19e+00
2006 11 26  1630    54065   59400      0    1.72e+00    0    1.22e+00
2006 11 26  1635    54065   59700      0    1.74e+00    0    1.22e+00
2006 11 26  1640    54065   60000      0    1.69e+00    0    1.17e+00
2006 11 26  1645    54065   60300      0    1.69e+00    0    1.17e+00
2006 11 26  1650    54065   60600      0    1.65e+00    0    1.16e+00
2006 11 26  1655    54065   60900      0    1.69e+00    0    1.19e+00
2006 11 26  1700    54065   61200      0    1.73e+00    0    1.21e+00
2006 11 26  1705    54065   61500      0    1.68e+00    0    1.19e+00
2006 11 26  1710    54065   61800      0    1.70e+00    0    1.19e+00
2006 11 26  1715    54065   62100      0    1.71e+00    0    1.20e+00
2006 11 26  1720    54065   62400      0    1.70e+00    0    1.20e+00
2006 11 26  1725    54065   62700      0    1.69e+00    0    1.20e+00
2006 11 26  1730    54065   63000      0    1.69e+00    0    1.19e+00
2006 11 26  1735    54065   63300      0    1.71e+00    0    1.20e+00
2006 11 26  1740    54065   63600      0    1.73e+00    0    1.22e+00
2006 11 26  1745    54065   63900      0    1.69e+00    0    1.18e+00
2006 11 26  1750    54065   64200      0    1.70e+00    0    1.20e+00
2006 11 26  1755    54065   64500      0    1.75e+00    0    1.23e+00
2006 11 26  1800    54065   64800      0    1.69e+00    0    1.20e+00
2006 11 26  1805    54065   65100      0    1.75e+00    0    1.23e+00
2006 11 26  1810    54065   65400      0    1.69e+00    0    1.19e+00
2006 11 26  1815    54065   65700      0    1.75e+00    0    1.23e+00
2006 11 26  1820    54065   66000      0    1.69e+00    0    1.18e+00
2006 11 26  1825    54065   66300      0    1.70e+00    0    1.19e+00
2006 11 26  1830    54065   66600      0    1.67e+00    0    1.16e+00
2006 11 26  1835    54065   66900      0    1.74e+00    0    1.22e+00
2006 11 26  1840    54065   67200      0    1.71e+00    0    1.20e+00
2006 11 26  1845    54065   67500      0    1.73e+00    0    1.23e+00
2006 11 26  1850    54065   67800      0    1.71e+00    0    1.20e+00
2006 11 26  1855    54065   68100      0    1.68e+00    0    1.18e+00
2006 11 26  1900    54065   68400      0    1.72e+00    0    1.21e+00
2006 11 26  1905    54065   68700      0    1.69e+00    0    1.19e+00
2006 11 26  1910    54065   69000      0    1.71e+00    0    1.20e+00
2006 11 26  1915    54065   69300      0    1.71e+00    0    1.21e+00
2006 11 26  1920    54065   69600      0    1.72e+00    0    1.21e+00
2006 11 26  1925    54065   69900      0    1.71e+00    0    1.20e+00
2006 11 26  1930    54065   70200      0    1.70e+00    0    1.20e+00
2006 11 26  1935    54065   70500      0    1.73e+00    0    1.22e+00
2006 11 26  1940    54065   70800      0    1.75e+00    0    1.22e+00
2006 11 26  1945    54065   71100      0    1.76e+00    0    1.25e+00
2006 11 26  1950    54065   71400      0    1.70e+00    0    1.20e+00
2006 11 26  1955    54065   71700      0    1.70e+00    0    1.19e+00
2006 11 26  2000    54065   72000      0    1.71e+00    0    1.20e+00
2006 11 26  2005    54065   72300      0    1.71e+00    0    1.19e+00
2006 11 26  2010    54065   72600      0    1.72e+00    0    1.22e+00
2006 11 26  2015    54065   72900      0    1.75e+00    0    1.23e+00
2006 11 26  2020    54065   73200      0    1.70e+00    0    1.19e+00
2006 11 26  2025    54065   73500      0    1.71e+00    0    1.21e+00
2006 11 26  2030    54065   73800      0    1.71e+00    0    1.20e+00
2006 11 26  2035    54065   74100      0    1.74e+00    0    1.22e+00
2006 11 26  2040    54065   74400      9   -1.00e+05    9   -1.00e+05
2006 11 26  2045    54065   74700      9   -1.00e+05    9   -1.00e+05
2006 11 26  2050    54065   75000      9   -1.00e+05    9   -1.00e+05
2006 11 26  2055    54065   75300      9   -1.00e+05    9   -1.00e+05
2006 11 26  2100    54065   75600      9   -1.00e+05    9   -1.00e+05
2006 11 26  2105    54065   75900      9   -1.00e+05    9   -1.00e+05
2006 11 26  2110    54065   76200      0    1.71e+00    0    1.20e+00
2006 11 26  2115    54065   76500      0    1.68e+00    0    1.20e+00
2006 11 26  2120    54065   76800      0    1.69e+00    0    1.19e+00
2006 11 26  2125    54065   77100      0    1.74e+00    0    1.23e+00
2006 11 26  2130    54065   77400      0    1.75e+00    0    1.23e+00
2006 11 26  2135    54065   77700      0    1.73e+00    0    1.21e+00
2006 11 26  2140    54065   78000      0    1.70e+00    0    1.20e+00
2006 11 26  2145    54065   78300      0    1.68e+00    0    1.19e+00
2006 11 26  2150    54065   78600      0    1.70e+00    0    1.19e+00
2006 11 26  2155    54065   78900      0    1.74e+00    0    1.23e+00
2006 11 26  2200    54065   79200      0    1.71e+00    0    1.19e+00
2006 11 26  2205    54065   79500      0    1.69e+00    0    1.16e+00
2006 11 26  2210    54065   79800      0    1.72e+00    0    1.21e+00
2006 11 26  2215    54065   80100      0    1.74e+00    0    1.22e+00
2006 11 26  2220    54065   80400      0    1.71e+00    0    1.20e+00
2006 11 26  2225    54065   80700      0    1.72e+00    0    1.21e+00
2006 11 26  2230    54065   81000      0    1.75e+00    0    1.24e+00
2006 11 26  2235    54065   81300      0    1.71e+00    0    1.20e+00
2006 11 26  2240    54065   81600      0    1.70e+00    0    1.19e+00
2006 11 26  2245    54065   81900      0    1.74e+00    0    1.22e+00
2006 11 26  2250    54065   82200      0    1.72e+00    0    1.20e+00
2006 11 26  2255    54065   82500      0    1.73e+00    0    1.21e+00
2006 11 26  2300    54065   82800      0    1.73e+00    0    1.22e+00
2006 11 26  2305    54065   83100      0    1.75e+00    0    1.23e+00
2006 11 26  2310    54065   83400      0    1.69e+00    0    1.20e+00
2006 11 26  2315    54065   83700      0    1.75e+00    0    1.22e+00
2006 11 26  2320    54065   84000      9   -1.00e+05    9   -1.00e+05
2006 11 26  2325    54065   84300      9   -1.00e+05    9   -1.00e+05
2006 11 26  2330    54065   84600      9   -1.00e+05    9   -1.00e+05
2006 11 26  2335    54065   84900      9   -1.00e+05    9   -1.00e+05
2006 11 26  2340    54065   85200      9   -1.00e+05    9   -1.00e+05
2006 11 26  2345    54065   85500      9   -1.00e+05    9   -1.00e+05
2006 11 26  2350    54065   85800      9   -1.00e+05    9   -1.00e+05
2006 11 26  2355    54065   86100      9   -1.00e+05    9   -1.00e+05
