:Data_list: 20060525_ace_sis_5m.txt
:Created: 2006 May 26 0011 UT
# Prepared by the U.S. Dept. of Commerce, NOAA, Space Environment Center.
# Please send comments and suggestions to SEC.Webmaster@noaa.gov 
# 
# Units: proton flux p/cs2-sec-ster
# Status(S): 0 = nominal data, 1 to 8 = bad data record, 9 = no data
# Missing data values: -1.00e+05
# Source: ACE Satellite - Solar Isotope Spectrometer
#
# 5-minute averaged Real-time Integral Flux of High-energy Solar Protons
# 
#                 Modified Seconds
# UT Date   Time   Julian  of the      ---- Integral Proton Flux ----
# YR MO DA  HHMM     Day     Day       S    > 10 MeV    S    > 30 MeV
#--------------------------------------------------------------------
2006 05 25  0000    53880       0      0    1.63e+00    0    1.15e+00
2006 05 25  0005    53880     300      0    1.62e+00    0    1.15e+00
2006 05 25  0010    53880     600      0    1.62e+00    0    1.14e+00
2006 05 25  0015    53880     900      0    1.62e+00    0    1.14e+00
2006 05 25  0020    53880    1200      0    1.61e+00    0    1.13e+00
2006 05 25  0025    53880    1500      0    1.59e+00    0    1.11e+00
2006 05 25  0030    53880    1800      0    1.57e+00    0    1.11e+00
2006 05 25  0035    53880    2100      0    1.64e+00    0    1.14e+00
2006 05 25  0040    53880    2400      0    1.64e+00    0    1.16e+00
2006 05 25  0045    53880    2700      0    1.63e+00    0    1.15e+00
2006 05 25  0050    53880    3000      0    1.60e+00    0    1.13e+00
2006 05 25  0055    53880    3300      0    1.63e+00    0    1.14e+00
2006 05 25  0100    53880    3600      0    1.60e+00    0    1.12e+00
2006 05 25  0105    53880    3900      0    1.62e+00    0    1.14e+00
2006 05 25  0110    53880    4200      0    1.61e+00    0    1.13e+00
2006 05 25  0115    53880    4500      0    1.66e+00    0    1.17e+00
2006 05 25  0120    53880    4800      0    1.62e+00    0    1.13e+00
2006 05 25  0125    53880    5100      0    1.63e+00    0    1.14e+00
2006 05 25  0130    53880    5400      0    1.62e+00    0    1.14e+00
2006 05 25  0135    53880    5700      0    1.62e+00    0    1.13e+00
2006 05 25  0140    53880    6000      0    1.63e+00    0    1.15e+00
2006 05 25  0145    53880    6300      0    1.61e+00    0    1.14e+00
2006 05 25  0150    53880    6600      0    1.62e+00    0    1.13e+00
2006 05 25  0155    53880    6900      0    1.64e+00    0    1.15e+00
2006 05 25  0200    53880    7200      0    1.62e+00    0    1.15e+00
2006 05 25  0205    53880    7500      0    1.61e+00    0    1.13e+00
2006 05 25  0210    53880    7800      0    1.59e+00    0    1.11e+00
2006 05 25  0215    53880    8100      0    1.63e+00    0    1.13e+00
2006 05 25  0220    53880    8400      0    1.58e+00    0    1.11e+00
2006 05 25  0225    53880    8700      0    1.64e+00    0    1.16e+00
2006 05 25  0230    53880    9000      0    1.64e+00    0    1.13e+00
2006 05 25  0235    53880    9300      0    1.66e+00    0    1.16e+00
2006 05 25  0240    53880    9600      0    1.58e+00    0    1.10e+00
2006 05 25  0245    53880    9900      0    1.63e+00    0    1.14e+00
2006 05 25  0250    53880   10200      0    1.65e+00    0    1.17e+00
2006 05 25  0255    53880   10500      0    1.63e+00    0    1.14e+00
2006 05 25  0300    53880   10800      0    1.63e+00    0    1.13e+00
2006 05 25  0305    53880   11100      0    1.60e+00    0    1.12e+00
2006 05 25  0310    53880   11400      0    1.61e+00    0    1.13e+00
2006 05 25  0315    53880   11700      0    1.63e+00    0    1.14e+00
2006 05 25  0320    53880   12000      0    1.62e+00    0    1.14e+00
2006 05 25  0325    53880   12300      0    1.60e+00    0    1.12e+00
2006 05 25  0330    53880   12600      0    1.63e+00    0    1.15e+00
2006 05 25  0335    53880   12900      0    1.62e+00    0    1.13e+00
2006 05 25  0340    53880   13200      0    1.63e+00    0    1.15e+00
2006 05 25  0345    53880   13500      0    1.62e+00    0    1.15e+00
2006 05 25  0350    53880   13800      0    1.62e+00    0    1.13e+00
2006 05 25  0355    53880   14100      0    1.61e+00    0    1.13e+00
2006 05 25  0400    53880   14400      0    1.60e+00    0    1.11e+00
2006 05 25  0405    53880   14700      0    1.62e+00    0    1.14e+00
2006 05 25  0410    53880   15000      0    1.64e+00    0    1.15e+00
2006 05 25  0415    53880   15300      0    1.67e+00    0    1.17e+00
2006 05 25  0420    53880   15600      0    1.64e+00    0    1.16e+00
2006 05 25  0425    53880   15900      0    1.60e+00    0    1.13e+00
2006 05 25  0430    53880   16200      0    1.65e+00    0    1.15e+00
2006 05 25  0435    53880   16500      0    1.62e+00    0    1.13e+00
2006 05 25  0440    53880   16800      0    1.64e+00    0    1.15e+00
2006 05 25  0445    53880   17100      0    1.66e+00    0    1.15e+00
2006 05 25  0450    53880   17400      0    1.62e+00    0    1.13e+00
2006 05 25  0455    53880   17700      0    1.61e+00    0    1.13e+00
2006 05 25  0500    53880   18000      0    1.62e+00    0    1.14e+00
2006 05 25  0505    53880   18300      0    1.63e+00    0    1.13e+00
2006 05 25  0510    53880   18600      0    1.61e+00    0    1.13e+00
2006 05 25  0515    53880   18900      0    1.65e+00    0    1.16e+00
2006 05 25  0520    53880   19200      0    1.65e+00    0    1.17e+00
2006 05 25  0525    53880   19500      0    1.65e+00    0    1.15e+00
2006 05 25  0530    53880   19800      0    1.66e+00    0    1.16e+00
2006 05 25  0535    53880   20100      0    1.62e+00    0    1.14e+00
2006 05 25  0540    53880   20400      0    1.64e+00    0    1.15e+00
2006 05 25  0545    53880   20700      0    1.62e+00    0    1.13e+00
2006 05 25  0550    53880   21000      0    1.61e+00    0    1.12e+00
2006 05 25  0555    53880   21300      0    1.60e+00    0    1.12e+00
2006 05 25  0600    53880   21600      0    1.67e+00    0    1.18e+00
2006 05 25  0605    53880   21900      0    1.59e+00    0    1.10e+00
2006 05 25  0610    53880   22200      0    1.62e+00    0    1.14e+00
2006 05 25  0615    53880   22500      0    1.63e+00    0    1.15e+00
2006 05 25  0620    53880   22800      0    1.60e+00    0    1.12e+00
2006 05 25  0625    53880   23100      0    1.64e+00    0    1.16e+00
2006 05 25  0630    53880   23400      0    1.61e+00    0    1.13e+00
2006 05 25  0635    53880   23700      0    1.63e+00    0    1.15e+00
2006 05 25  0640    53880   24000      0    1.60e+00    0    1.13e+00
2006 05 25  0645    53880   24300      0    1.64e+00    0    1.15e+00
2006 05 25  0650    53880   24600      0    1.63e+00    0    1.15e+00
2006 05 25  0655    53880   24900      0    1.60e+00    0    1.12e+00
2006 05 25  0700    53880   25200      0    1.63e+00    0    1.14e+00
2006 05 25  0705    53880   25500      0    1.61e+00    0    1.13e+00
2006 05 25  0710    53880   25800      0    1.65e+00    0    1.16e+00
2006 05 25  0715    53880   26100      0    1.61e+00    0    1.12e+00
2006 05 25  0720    53880   26400      0    1.63e+00    0    1.14e+00
2006 05 25  0725    53880   26700      0    1.63e+00    0    1.13e+00
2006 05 25  0730    53880   27000      0    1.63e+00    0    1.15e+00
2006 05 25  0735    53880   27300      0    1.62e+00    0    1.14e+00
2006 05 25  0740    53880   27600      0    1.62e+00    0    1.13e+00
2006 05 25  0745    53880   27900      0    1.64e+00    0    1.14e+00
2006 05 25  0750    53880   28200      0    1.63e+00    0    1.14e+00
2006 05 25  0755    53880   28500      0    1.63e+00    0    1.13e+00
2006 05 25  0800    53880   28800      0    1.63e+00    0    1.15e+00
2006 05 25  0805    53880   29100      0    1.60e+00    0    1.12e+00
2006 05 25  0810    53880   29400      0    1.59e+00    0    1.11e+00
2006 05 25  0815    53880   29700      0    1.61e+00    0    1.12e+00
2006 05 25  0820    53880   30000      0    1.58e+00    0    1.11e+00
2006 05 25  0825    53880   30300      0    1.63e+00    0    1.14e+00
2006 05 25  0830    53880   30600      0    1.62e+00    0    1.15e+00
2006 05 25  0835    53880   30900      0    1.62e+00    0    1.12e+00
2006 05 25  0840    53880   31200      0    1.62e+00    0    1.14e+00
2006 05 25  0845    53880   31500      0    1.66e+00    0    1.17e+00
2006 05 25  0850    53880   31800      0    1.62e+00    0    1.12e+00
2006 05 25  0855    53880   32100      0    1.63e+00    0    1.15e+00
2006 05 25  0900    53880   32400      0    1.62e+00    0    1.13e+00
2006 05 25  0905    53880   32700      0    1.58e+00    0    1.10e+00
2006 05 25  0910    53880   33000      0    1.66e+00    0    1.16e+00
2006 05 25  0915    53880   33300      0    1.64e+00    0    1.14e+00
2006 05 25  0920    53880   33600      0    1.62e+00    0    1.14e+00
2006 05 25  0925    53880   33900      0    1.62e+00    0    1.13e+00
2006 05 25  0930    53880   34200      0    1.61e+00    0    1.12e+00
2006 05 25  0935    53880   34500      0    1.64e+00    0    1.15e+00
2006 05 25  0940    53880   34800      0    1.58e+00    0    1.10e+00
2006 05 25  0945    53880   35100      0    1.61e+00    0    1.11e+00
2006 05 25  0950    53880   35400      0    1.65e+00    0    1.14e+00
2006 05 25  0955    53880   35700      0    1.67e+00    0    1.18e+00
2006 05 25  1000    53880   36000      0    1.64e+00    0    1.14e+00
2006 05 25  1005    53880   36300      0    1.64e+00    0    1.15e+00
2006 05 25  1010    53880   36600      0    1.61e+00    0    1.11e+00
2006 05 25  1015    53880   36900      0    1.62e+00    0    1.13e+00
2006 05 25  1020    53880   37200      0    1.59e+00    0    1.11e+00
2006 05 25  1025    53880   37500      0    1.65e+00    0    1.16e+00
2006 05 25  1030    53880   37800      0    1.65e+00    0    1.15e+00
2006 05 25  1035    53880   38100      0    1.62e+00    0    1.13e+00
2006 05 25  1040    53880   38400      0    1.64e+00    0    1.15e+00
2006 05 25  1045    53880   38700      0    1.65e+00    0    1.16e+00
2006 05 25  1050    53880   39000      0    1.65e+00    0    1.15e+00
2006 05 25  1055    53880   39300      0    1.62e+00    0    1.14e+00
2006 05 25  1100    53880   39600      0    1.59e+00    0    1.12e+00
2006 05 25  1105    53880   39900      0    1.62e+00    0    1.14e+00
2006 05 25  1110    53880   40200      0    1.65e+00    0    1.16e+00
2006 05 25  1115    53880   40500      0    1.62e+00    0    1.14e+00
2006 05 25  1120    53880   40800      0    1.61e+00    0    1.14e+00
2006 05 25  1125    53880   41100      0    1.63e+00    0    1.14e+00
2006 05 25  1130    53880   41400      0    1.61e+00    0    1.13e+00
2006 05 25  1135    53880   41700      0    1.62e+00    0    1.14e+00
2006 05 25  1140    53880   42000      0    1.62e+00    0    1.15e+00
2006 05 25  1145    53880   42300      0    1.63e+00    0    1.15e+00
2006 05 25  1150    53880   42600      0    1.62e+00    0    1.14e+00
2006 05 25  1155    53880   42900      0    1.64e+00    0    1.15e+00
2006 05 25  1200    53880   43200      0    1.64e+00    0    1.15e+00
2006 05 25  1205    53880   43500      0    1.59e+00    0    1.11e+00
2006 05 25  1210    53880   43800      0    1.58e+00    0    1.10e+00
2006 05 25  1215    53880   44100      0    1.66e+00    0    1.17e+00
2006 05 25  1220    53880   44400      0    1.65e+00    0    1.15e+00
2006 05 25  1225    53880   44700      0    1.62e+00    0    1.14e+00
2006 05 25  1230    53880   45000      0    1.63e+00    0    1.14e+00
2006 05 25  1235    53880   45300      0    1.62e+00    0    1.14e+00
2006 05 25  1240    53880   45600      0    1.60e+00    0    1.14e+00
2006 05 25  1245    53880   45900      0    1.63e+00    0    1.14e+00
2006 05 25  1250    53880   46200      0    1.65e+00    0    1.16e+00
2006 05 25  1255    53880   46500      0    1.64e+00    0    1.15e+00
2006 05 25  1300    53880   46800      0    1.61e+00    0    1.13e+00
2006 05 25  1305    53880   47100      0    1.64e+00    0    1.16e+00
2006 05 25  1310    53880   47400      0    1.63e+00    0    1.13e+00
2006 05 25  1315    53880   47700      0    1.63e+00    0    1.13e+00
2006 05 25  1320    53880   48000      0    1.62e+00    0    1.14e+00
2006 05 25  1325    53880   48300      0    1.64e+00    0    1.15e+00
2006 05 25  1330    53880   48600      0    1.61e+00    0    1.13e+00
2006 05 25  1335    53880   48900      0    1.66e+00    0    1.16e+00
2006 05 25  1340    53880   49200      0    1.62e+00    0    1.14e+00
2006 05 25  1345    53880   49500      0    1.57e+00    0    1.10e+00
2006 05 25  1350    53880   49800      0    1.62e+00    0    1.13e+00
2006 05 25  1355    53880   50100      0    1.65e+00    0    1.16e+00
2006 05 25  1400    53880   50400      0    1.62e+00    0    1.13e+00
2006 05 25  1405    53880   50700      0    1.62e+00    0    1.13e+00
2006 05 25  1410    53880   51000      0    1.64e+00    0    1.14e+00
2006 05 25  1415    53880   51300      0    1.63e+00    0    1.14e+00
2006 05 25  1420    53880   51600      0    1.64e+00    0    1.16e+00
2006 05 25  1425    53880   51900      0    1.60e+00    0    1.12e+00
2006 05 25  1430    53880   52200      0    1.62e+00    0    1.14e+00
2006 05 25  1435    53880   52500      0    1.66e+00    0    1.17e+00
2006 05 25  1440    53880   52800      0    1.60e+00    0    1.11e+00
2006 05 25  1445    53880   53100      0    1.63e+00    0    1.14e+00
2006 05 25  1450    53880   53400      0    1.61e+00    0    1.13e+00
2006 05 25  1455    53880   53700      0    1.62e+00    0    1.15e+00
2006 05 25  1500    53880   54000      0    1.63e+00    0    1.14e+00
2006 05 25  1505    53880   54300      0    1.63e+00    0    1.15e+00
2006 05 25  1510    53880   54600      0    1.62e+00    0    1.12e+00
2006 05 25  1515    53880   54900      0    1.63e+00    0    1.14e+00
2006 05 25  1520    53880   55200      0    1.65e+00    0    1.15e+00
2006 05 25  1525    53880   55500      0    1.61e+00    0    1.12e+00
2006 05 25  1530    53880   55800      0    1.65e+00    0    1.15e+00
2006 05 25  1535    53880   56100      0    1.63e+00    0    1.14e+00
2006 05 25  1540    53880   56400      0    1.62e+00    0    1.13e+00
2006 05 25  1545    53880   56700      0    1.63e+00    0    1.15e+00
2006 05 25  1550    53880   57000      0    1.66e+00    0    1.17e+00
2006 05 25  1555    53880   57300      0    1.63e+00    0    1.14e+00
2006 05 25  1600    53880   57600      0    1.62e+00    0    1.12e+00
2006 05 25  1605    53880   57900      0    1.63e+00    0    1.15e+00
2006 05 25  1610    53880   58200      0    1.60e+00    0    1.12e+00
2006 05 25  1615    53880   58500      0    1.61e+00    0    1.13e+00
2006 05 25  1620    53880   58800      0    1.67e+00    0    1.18e+00
2006 05 25  1625    53880   59100      0    1.62e+00    0    1.13e+00
2006 05 25  1630    53880   59400      0    1.63e+00    0    1.14e+00
2006 05 25  1635    53880   59700      0    1.59e+00    0    1.11e+00
2006 05 25  1640    53880   60000      0    1.64e+00    0    1.14e+00
2006 05 25  1645    53880   60300      0    1.63e+00    0    1.16e+00
2006 05 25  1650    53880   60600      0    1.62e+00    0    1.14e+00
2006 05 25  1655    53880   60900      0    1.62e+00    0    1.12e+00
2006 05 25  1700    53880   61200      0    1.62e+00    0    1.15e+00
2006 05 25  1705    53880   61500      0    1.66e+00    0    1.16e+00
2006 05 25  1710    53880   61800      0    1.61e+00    0    1.11e+00
2006 05 25  1715    53880   62100      0    1.62e+00    0    1.12e+00
2006 05 25  1720    53880   62400      0    1.67e+00    0    1.17e+00
2006 05 25  1725    53880   62700      0    1.64e+00    0    1.15e+00
2006 05 25  1730    53880   63000      0    1.65e+00    0    1.15e+00
2006 05 25  1735    53880   63300      0    1.64e+00    0    1.14e+00
2006 05 25  1740    53880   63600      0    1.65e+00    0    1.15e+00
2006 05 25  1745    53880   63900      0    1.64e+00    0    1.14e+00
2006 05 25  1750    53880   64200      0    1.63e+00    0    1.15e+00
2006 05 25  1755    53880   64500      0    1.61e+00    0    1.14e+00
2006 05 25  1800    53880   64800      0    1.64e+00    0    1.15e+00
2006 05 25  1805    53880   65100      0    1.62e+00    0    1.14e+00
2006 05 25  1810    53880   65400      0    1.59e+00    0    1.11e+00
2006 05 25  1815    53880   65700      0    1.67e+00    0    1.18e+00
2006 05 25  1820    53880   66000      0    1.68e+00    0    1.17e+00
2006 05 25  1825    53880   66300      0    1.61e+00    0    1.13e+00
2006 05 25  1830    53880   66600      0    1.61e+00    0    1.13e+00
2006 05 25  1835    53880   66900      0    1.60e+00    0    1.13e+00
2006 05 25  1840    53880   67200      0    1.61e+00    0    1.13e+00
2006 05 25  1845    53880   67500      0    1.60e+00    0    1.12e+00
2006 05 25  1850    53880   67800      0    1.62e+00    0    1.13e+00
2006 05 25  1855    53880   68100      0    1.56e+00    0    1.09e+00
2006 05 25  1900    53880   68400      0    1.62e+00    0    1.14e+00
2006 05 25  1905    53880   68700      0    1.60e+00    0    1.12e+00
2006 05 25  1910    53880   69000      0    1.65e+00    0    1.16e+00
2006 05 25  1915    53880   69300      0    1.62e+00    0    1.13e+00
2006 05 25  1920    53880   69600      0    1.60e+00    0    1.13e+00
2006 05 25  1925    53880   69900      0    1.64e+00    0    1.15e+00
2006 05 25  1930    53880   70200      0    1.64e+00    0    1.15e+00
2006 05 25  1935    53880   70500      0    1.64e+00    0    1.14e+00
2006 05 25  1940    53880   70800      0    1.62e+00    0    1.14e+00
2006 05 25  1945    53880   71100      0    1.59e+00    0    1.12e+00
2006 05 25  1950    53880   71400      0    1.61e+00    0    1.12e+00
2006 05 25  1955    53880   71700      0    1.61e+00    0    1.13e+00
2006 05 25  2000    53880   72000      0    1.61e+00    0    1.13e+00
2006 05 25  2005    53880   72300      0    1.62e+00    0    1.14e+00
2006 05 25  2010    53880   72600      0    1.63e+00    0    1.14e+00
2006 05 25  2015    53880   72900      0    1.67e+00    0    1.16e+00
2006 05 25  2020    53880   73200      0    1.60e+00    0    1.13e+00
2006 05 25  2025    53880   73500      0    1.60e+00    0    1.12e+00
2006 05 25  2030    53880   73800      0    1.59e+00    0    1.13e+00
2006 05 25  2035    53880   74100      0    1.62e+00    0    1.14e+00
2006 05 25  2040    53880   74400      0    1.61e+00    0    1.13e+00
2006 05 25  2045    53880   74700      0    1.63e+00    0    1.15e+00
2006 05 25  2050    53880   75000      0    1.63e+00    0    1.14e+00
2006 05 25  2055    53880   75300      0    1.63e+00    0    1.15e+00
2006 05 25  2100    53880   75600      0    1.61e+00    0    1.13e+00
2006 05 25  2105    53880   75900      0    1.63e+00    0    1.14e+00
2006 05 25  2110    53880   76200      0    1.60e+00    0    1.11e+00
2006 05 25  2115    53880   76500      0    1.65e+00    0    1.15e+00
2006 05 25  2120    53880   76800      0    1.62e+00    0    1.14e+00
2006 05 25  2125    53880   77100      0    1.61e+00    0    1.12e+00
2006 05 25  2130    53880   77400      0    1.62e+00    0    1.13e+00
2006 05 25  2135    53880   77700      0    1.62e+00    0    1.13e+00
2006 05 25  2140    53880   78000      0    1.66e+00    0    1.16e+00
2006 05 25  2145    53880   78300      0    1.65e+00    0    1.15e+00
2006 05 25  2150    53880   78600      0    1.60e+00    0    1.11e+00
2006 05 25  2155    53880   78900      0    1.64e+00    0    1.17e+00
2006 05 25  2200    53880   79200      0    1.63e+00    0    1.16e+00
2006 05 25  2205    53880   79500      0    1.60e+00    0    1.12e+00
2006 05 25  2210    53880   79800      0    1.61e+00    0    1.12e+00
2006 05 25  2215    53880   80100      0    1.67e+00    0    1.17e+00
2006 05 25  2220    53880   80400      0    1.65e+00    0    1.16e+00
2006 05 25  2225    53880   80700      0    1.63e+00    0    1.14e+00
2006 05 25  2230    53880   81000      0    1.60e+00    0    1.12e+00
2006 05 25  2235    53880   81300      0    1.66e+00    0    1.16e+00
2006 05 25  2240    53880   81600      0    1.66e+00    0    1.16e+00
2006 05 25  2245    53880   81900      0    1.64e+00    0    1.14e+00
2006 05 25  2250    53880   82200      0    1.66e+00    0    1.17e+00
2006 05 25  2255    53880   82500      0    1.60e+00    0    1.11e+00
2006 05 25  2300    53880   82800      0    1.65e+00    0    1.16e+00
2006 05 25  2305    53880   83100      0    1.62e+00    0    1.13e+00
2006 05 25  2310    53880   83400      0    1.65e+00    0    1.16e+00
2006 05 25  2315    53880   83700      0    1.64e+00    0    1.16e+00
2006 05 25  2320    53880   84000      0    1.63e+00    0    1.13e+00
2006 05 25  2325    53880   84300      0    1.64e+00    0    1.14e+00
2006 05 25  2330    53880   84600      0    1.60e+00    0    1.13e+00
2006 05 25  2335    53880   84900      0    1.64e+00    0    1.15e+00
2006 05 25  2340    53880   85200      0    1.61e+00    0    1.13e+00
2006 05 25  2345    53880   85500      0    1.64e+00    0    1.15e+00
2006 05 25  2350    53880   85800      0    1.60e+00    0    1.12e+00
2006 05 25  2355    53880   86100      0    1.65e+00    0    1.15e+00
