:Data_list: 20060530_ace_sis_5m.txt
:Created: 2006 May 31 0011 UT
# Prepared by the U.S. Dept. of Commerce, NOAA, Space Environment Center.
# Please send comments and suggestions to SEC.Webmaster@noaa.gov 
# 
# Units: proton flux p/cs2-sec-ster
# Status(S): 0 = nominal data, 1 to 8 = bad data record, 9 = no data
# Missing data values: -1.00e+05
# Source: ACE Satellite - Solar Isotope Spectrometer
#
# 5-minute averaged Real-time Integral Flux of High-energy Solar Protons
# 
#                 Modified Seconds
# UT Date   Time   Julian  of the      ---- Integral Proton Flux ----
# YR MO DA  HHMM     Day     Day       S    > 10 MeV    S    > 30 MeV
#--------------------------------------------------------------------
2006 05 30  0000    53885       0      0    1.64e+00    0    1.16e+00
2006 05 30  0005    53885     300      0    1.63e+00    0    1.15e+00
2006 05 30  0010    53885     600      0    1.62e+00    0    1.15e+00
2006 05 30  0015    53885     900      0    1.65e+00    0    1.15e+00
2006 05 30  0020    53885    1200      0    1.64e+00    0    1.15e+00
2006 05 30  0025    53885    1500      0    1.64e+00    0    1.14e+00
2006 05 30  0030    53885    1800      0    1.61e+00    0    1.12e+00
2006 05 30  0035    53885    2100      0    1.69e+00    0    1.18e+00
2006 05 30  0040    53885    2400      0    1.70e+00    0    1.19e+00
2006 05 30  0045    53885    2700      0    1.64e+00    0    1.15e+00
2006 05 30  0050    53885    3000      0    1.62e+00    0    1.12e+00
2006 05 30  0055    53885    3300      0    1.61e+00    0    1.12e+00
2006 05 30  0100    53885    3600      0    1.65e+00    0    1.15e+00
2006 05 30  0105    53885    3900      0    1.66e+00    0    1.18e+00
2006 05 30  0110    53885    4200      0    1.62e+00    0    1.14e+00
2006 05 30  0115    53885    4500      0    1.69e+00    0    1.19e+00
2006 05 30  0120    53885    4800      0    1.66e+00    0    1.16e+00
2006 05 30  0125    53885    5100      0    1.63e+00    0    1.13e+00
2006 05 30  0130    53885    5400      0    1.64e+00    0    1.14e+00
2006 05 30  0135    53885    5700      0    1.66e+00    0    1.17e+00
2006 05 30  0140    53885    6000      0    1.66e+00    0    1.16e+00
2006 05 30  0145    53885    6300      0    1.66e+00    0    1.17e+00
2006 05 30  0150    53885    6600      0    1.65e+00    0    1.15e+00
2006 05 30  0155    53885    6900      0    1.68e+00    0    1.18e+00
2006 05 30  0200    53885    7200      0    1.67e+00    0    1.17e+00
2006 05 30  0205    53885    7500      0    1.65e+00    0    1.17e+00
2006 05 30  0210    53885    7800      0    1.62e+00    0    1.12e+00
2006 05 30  0215    53885    8100      0    1.62e+00    0    1.13e+00
2006 05 30  0220    53885    8400      0    1.67e+00    0    1.17e+00
2006 05 30  0225    53885    8700      0    1.66e+00    0    1.17e+00
2006 05 30  0230    53885    9000      0    1.63e+00    0    1.14e+00
2006 05 30  0235    53885    9300      0    1.66e+00    0    1.16e+00
2006 05 30  0240    53885    9600      0    1.65e+00    0    1.15e+00
2006 05 30  0245    53885    9900      0    1.64e+00    0    1.14e+00
2006 05 30  0250    53885   10200      0    1.69e+00    0    1.17e+00
2006 05 30  0255    53885   10500      0    1.64e+00    0    1.15e+00
2006 05 30  0300    53885   10800      0    1.69e+00    0    1.20e+00
2006 05 30  0305    53885   11100      0    1.63e+00    0    1.15e+00
2006 05 30  0310    53885   11400      0    1.64e+00    0    1.17e+00
2006 05 30  0315    53885   11700      0    1.65e+00    0    1.16e+00
2006 05 30  0320    53885   12000      0    1.64e+00    0    1.14e+00
2006 05 30  0325    53885   12300      0    1.63e+00    0    1.14e+00
2006 05 30  0330    53885   12600      0    1.63e+00    0    1.15e+00
2006 05 30  0335    53885   12900      0    1.66e+00    0    1.17e+00
2006 05 30  0340    53885   13200      0    1.59e+00    0    1.11e+00
2006 05 30  0345    53885   13500      0    1.63e+00    0    1.15e+00
2006 05 30  0350    53885   13800      0    1.62e+00    0    1.14e+00
2006 05 30  0355    53885   14100      0    1.65e+00    0    1.15e+00
2006 05 30  0400    53885   14400      0    1.68e+00    0    1.18e+00
2006 05 30  0405    53885   14700      0    1.64e+00    0    1.15e+00
2006 05 30  0410    53885   15000      0    1.63e+00    0    1.15e+00
2006 05 30  0415    53885   15300      0    1.69e+00    0    1.18e+00
2006 05 30  0420    53885   15600      0    1.65e+00    0    1.16e+00
2006 05 30  0425    53885   15900      0    1.62e+00    0    1.14e+00
2006 05 30  0430    53885   16200      0    1.65e+00    0    1.15e+00
2006 05 30  0435    53885   16500      0    1.60e+00    0    1.13e+00
2006 05 30  0440    53885   16800      0    1.63e+00    0    1.13e+00
2006 05 30  0445    53885   17100      0    1.69e+00    0    1.19e+00
2006 05 30  0450    53885   17400      0    1.66e+00    0    1.16e+00
2006 05 30  0455    53885   17700      0    1.63e+00    0    1.14e+00
2006 05 30  0500    53885   18000      0    1.63e+00    0    1.15e+00
2006 05 30  0505    53885   18300      0    1.64e+00    0    1.14e+00
2006 05 30  0510    53885   18600      0    1.65e+00    0    1.15e+00
2006 05 30  0515    53885   18900      0    1.66e+00    0    1.17e+00
2006 05 30  0520    53885   19200      0    1.70e+00    0    1.19e+00
2006 05 30  0525    53885   19500      0    1.63e+00    0    1.15e+00
2006 05 30  0530    53885   19800      0    1.64e+00    0    1.14e+00
2006 05 30  0535    53885   20100      0    1.69e+00    0    1.18e+00
2006 05 30  0540    53885   20400      0    1.67e+00    0    1.17e+00
2006 05 30  0545    53885   20700      0    1.66e+00    0    1.15e+00
2006 05 30  0550    53885   21000      0    1.66e+00    0    1.16e+00
2006 05 30  0555    53885   21300      0    1.65e+00    0    1.17e+00
2006 05 30  0600    53885   21600      0    1.67e+00    0    1.16e+00
2006 05 30  0605    53885   21900      0    1.68e+00    0    1.18e+00
2006 05 30  0610    53885   22200      0    1.65e+00    0    1.16e+00
2006 05 30  0615    53885   22500      0    1.64e+00    0    1.13e+00
2006 05 30  0620    53885   22800      0    1.61e+00    0    1.11e+00
2006 05 30  0625    53885   23100      0    1.65e+00    0    1.15e+00
2006 05 30  0630    53885   23400      0    1.68e+00    0    1.18e+00
2006 05 30  0635    53885   23700      0    1.62e+00    0    1.14e+00
2006 05 30  0640    53885   24000      0    1.64e+00    0    1.16e+00
2006 05 30  0645    53885   24300      0    1.66e+00    0    1.17e+00
2006 05 30  0650    53885   24600      0    1.65e+00    0    1.16e+00
2006 05 30  0655    53885   24900      0    1.67e+00    0    1.17e+00
2006 05 30  0700    53885   25200      0    1.60e+00    0    1.12e+00
2006 05 30  0705    53885   25500      0    1.64e+00    0    1.14e+00
2006 05 30  0710    53885   25800      0    1.67e+00    0    1.18e+00
2006 05 30  0715    53885   26100      0    1.64e+00    0    1.15e+00
2006 05 30  0720    53885   26400      0    1.66e+00    0    1.16e+00
2006 05 30  0725    53885   26700      0    1.61e+00    0    1.12e+00
2006 05 30  0730    53885   27000      0    1.63e+00    0    1.15e+00
2006 05 30  0735    53885   27300      0    1.65e+00    0    1.16e+00
2006 05 30  0740    53885   27600      0    1.66e+00    0    1.15e+00
2006 05 30  0745    53885   27900      0    1.63e+00    0    1.15e+00
2006 05 30  0750    53885   28200      0    1.61e+00    0    1.13e+00
2006 05 30  0755    53885   28500      0    1.66e+00    0    1.16e+00
2006 05 30  0800    53885   28800      0    1.63e+00    0    1.13e+00
2006 05 30  0805    53885   29100      0    1.68e+00    0    1.17e+00
2006 05 30  0810    53885   29400      0    1.66e+00    0    1.15e+00
2006 05 30  0815    53885   29700      0    1.63e+00    0    1.14e+00
2006 05 30  0820    53885   30000      0    1.61e+00    0    1.13e+00
2006 05 30  0825    53885   30300      0    1.65e+00    0    1.16e+00
2006 05 30  0830    53885   30600      0    1.66e+00    0    1.16e+00
2006 05 30  0835    53885   30900      0    1.63e+00    0    1.13e+00
2006 05 30  0840    53885   31200      0    1.68e+00    0    1.18e+00
2006 05 30  0845    53885   31500      0    1.59e+00    0    1.10e+00
2006 05 30  0850    53885   31800      0    1.65e+00    0    1.15e+00
2006 05 30  0855    53885   32100      0    1.66e+00    0    1.15e+00
2006 05 30  0900    53885   32400      0    1.68e+00    0    1.19e+00
2006 05 30  0905    53885   32700      0    1.69e+00    0    1.18e+00
2006 05 30  0910    53885   33000      0    1.63e+00    0    1.14e+00
2006 05 30  0915    53885   33300      0    1.65e+00    0    1.16e+00
2006 05 30  0920    53885   33600      0    1.66e+00    0    1.17e+00
2006 05 30  0925    53885   33900      0    1.66e+00    0    1.17e+00
2006 05 30  0930    53885   34200      0    1.62e+00    0    1.12e+00
2006 05 30  0935    53885   34500      0    1.65e+00    0    1.15e+00
2006 05 30  0940    53885   34800      0    1.67e+00    0    1.17e+00
2006 05 30  0945    53885   35100      0    1.64e+00    0    1.14e+00
2006 05 30  0950    53885   35400      0    1.66e+00    0    1.17e+00
2006 05 30  0955    53885   35700      0    1.66e+00    0    1.15e+00
2006 05 30  1000    53885   36000      0    1.65e+00    0    1.15e+00
2006 05 30  1005    53885   36300      0    1.62e+00    0    1.12e+00
2006 05 30  1010    53885   36600      0    1.66e+00    0    1.18e+00
2006 05 30  1015    53885   36900      0    1.64e+00    0    1.15e+00
2006 05 30  1020    53885   37200      0    1.65e+00    0    1.16e+00
2006 05 30  1025    53885   37500      0    1.66e+00    0    1.16e+00
2006 05 30  1030    53885   37800      0    1.62e+00    0    1.12e+00
2006 05 30  1035    53885   38100      0    1.65e+00    0    1.16e+00
2006 05 30  1040    53885   38400      0    1.65e+00    0    1.15e+00
2006 05 30  1045    53885   38700      0    1.67e+00    0    1.17e+00
2006 05 30  1050    53885   39000      0    1.64e+00    0    1.15e+00
2006 05 30  1055    53885   39300      0    1.64e+00    0    1.15e+00
2006 05 30  1100    53885   39600      0    1.63e+00    0    1.14e+00
2006 05 30  1105    53885   39900      0    1.63e+00    0    1.15e+00
2006 05 30  1110    53885   40200      0    1.64e+00    0    1.15e+00
2006 05 30  1115    53885   40500      0    1.67e+00    0    1.17e+00
2006 05 30  1120    53885   40800      0    1.63e+00    0    1.14e+00
2006 05 30  1125    53885   41100      0    1.65e+00    0    1.15e+00
2006 05 30  1130    53885   41400      0    1.63e+00    0    1.15e+00
2006 05 30  1135    53885   41700      0    1.68e+00    0    1.18e+00
2006 05 30  1140    53885   42000      0    1.66e+00    0    1.16e+00
2006 05 30  1145    53885   42300      0    1.65e+00    0    1.17e+00
2006 05 30  1150    53885   42600      0    1.64e+00    0    1.15e+00
2006 05 30  1155    53885   42900      0    1.68e+00    0    1.17e+00
2006 05 30  1200    53885   43200      0    1.66e+00    0    1.16e+00
2006 05 30  1205    53885   43500      0    1.62e+00    0    1.14e+00
2006 05 30  1210    53885   43800      0    1.65e+00    0    1.15e+00
2006 05 30  1215    53885   44100      0    1.67e+00    0    1.17e+00
2006 05 30  1220    53885   44400      0    1.66e+00    0    1.17e+00
2006 05 30  1225    53885   44700      0    1.67e+00    0    1.17e+00
2006 05 30  1230    53885   45000      0    1.73e+00    0    1.22e+00
2006 05 30  1235    53885   45300      0    1.64e+00    0    1.14e+00
2006 05 30  1240    53885   45600      0    1.69e+00    0    1.19e+00
2006 05 30  1245    53885   45900      0    1.67e+00    0    1.17e+00
2006 05 30  1250    53885   46200      0    1.63e+00    0    1.14e+00
2006 05 30  1255    53885   46500      0    1.66e+00    0    1.17e+00
2006 05 30  1300    53885   46800      0    1.67e+00    0    1.18e+00
2006 05 30  1305    53885   47100      0    1.61e+00    0    1.12e+00
2006 05 30  1310    53885   47400      0    1.66e+00    0    1.16e+00
2006 05 30  1315    53885   47700      0    1.68e+00    0    1.17e+00
2006 05 30  1320    53885   48000      0    1.65e+00    0    1.15e+00
2006 05 30  1325    53885   48300      0    1.64e+00    0    1.14e+00
2006 05 30  1330    53885   48600      0    1.62e+00    0    1.14e+00
2006 05 30  1335    53885   48900      0    1.63e+00    0    1.14e+00
2006 05 30  1340    53885   49200      0    1.62e+00    0    1.13e+00
2006 05 30  1345    53885   49500      0    1.66e+00    0    1.16e+00
2006 05 30  1350    53885   49800      0    1.63e+00    0    1.15e+00
2006 05 30  1355    53885   50100      0    1.63e+00    0    1.15e+00
2006 05 30  1400    53885   50400      0    1.68e+00    0    1.17e+00
2006 05 30  1405    53885   50700      0    1.65e+00    0    1.17e+00
2006 05 30  1410    53885   51000      0    1.60e+00    0    1.12e+00
2006 05 30  1415    53885   51300      0    1.65e+00    0    1.15e+00
2006 05 30  1420    53885   51600      0    1.62e+00    0    1.14e+00
2006 05 30  1425    53885   51900      0    1.58e+00    0    1.11e+00
2006 05 30  1430    53885   52200      0    1.60e+00    0    1.12e+00
2006 05 30  1435    53885   52500      0    1.62e+00    0    1.13e+00
2006 05 30  1440    53885   52800      0    1.60e+00    0    1.11e+00
2006 05 30  1445    53885   53100      0    1.59e+00    0    1.12e+00
2006 05 30  1450    53885   53400      0    1.64e+00    0    1.16e+00
2006 05 30  1455    53885   53700      0    1.67e+00    0    1.17e+00
2006 05 30  1500    53885   54000      0    1.61e+00    0    1.13e+00
2006 05 30  1505    53885   54300      0    1.59e+00    0    1.11e+00
2006 05 30  1510    53885   54600      0    1.66e+00    0    1.17e+00
2006 05 30  1515    53885   54900      0    1.64e+00    0    1.15e+00
2006 05 30  1520    53885   55200      0    1.63e+00    0    1.13e+00
2006 05 30  1525    53885   55500      0    1.65e+00    0    1.15e+00
2006 05 30  1530    53885   55800      0    1.66e+00    0    1.16e+00
2006 05 30  1535    53885   56100      0    1.63e+00    0    1.15e+00
2006 05 30  1540    53885   56400      0    1.63e+00    0    1.14e+00
2006 05 30  1545    53885   56700      0    1.62e+00    0    1.15e+00
2006 05 30  1550    53885   57000      0    1.66e+00    0    1.17e+00
2006 05 30  1555    53885   57300      0    1.60e+00    0    1.12e+00
2006 05 30  1600    53885   57600      0    1.65e+00    0    1.16e+00
2006 05 30  1605    53885   57900      0    1.60e+00    0    1.13e+00
2006 05 30  1610    53885   58200      0    1.60e+00    0    1.13e+00
2006 05 30  1615    53885   58500      0    1.60e+00    0    1.11e+00
2006 05 30  1620    53885   58800      0    1.61e+00    0    1.12e+00
2006 05 30  1625    53885   59100      0    1.65e+00    0    1.16e+00
2006 05 30  1630    53885   59400      0    1.62e+00    0    1.14e+00
2006 05 30  1635    53885   59700      0    1.63e+00    0    1.15e+00
2006 05 30  1640    53885   60000      0    1.60e+00    0    1.13e+00
2006 05 30  1645    53885   60300      0    1.64e+00    0    1.15e+00
2006 05 30  1650    53885   60600      0    1.64e+00    0    1.14e+00
2006 05 30  1655    53885   60900      0    1.59e+00    0    1.11e+00
2006 05 30  1700    53885   61200      0    1.66e+00    0    1.16e+00
2006 05 30  1705    53885   61500      0    1.60e+00    0    1.13e+00
2006 05 30  1710    53885   61800      0    1.65e+00    0    1.16e+00
2006 05 30  1715    53885   62100      0    1.61e+00    0    1.13e+00
2006 05 30  1720    53885   62400      0    1.33e+00    0    9.28e-01
2006 05 30  1725    53885   62700      0    1.62e+00    0    1.15e+00
2006 05 30  1730    53885   63000      0    1.62e+00    0    1.14e+00
2006 05 30  1735    53885   63300      0    1.59e+00    0    1.11e+00
2006 05 30  1740    53885   63600      0    1.60e+00    0    1.13e+00
2006 05 30  1745    53885   63900      0    1.62e+00    0    1.13e+00
2006 05 30  1750    53885   64200      0    1.60e+00    0    1.11e+00
2006 05 30  1755    53885   64500      0    1.64e+00    0    1.15e+00
2006 05 30  1800    53885   64800      0    1.63e+00    0    1.15e+00
2006 05 30  1805    53885   65100      0    1.62e+00    0    1.15e+00
2006 05 30  1810    53885   65400      0    1.59e+00    0    1.12e+00
2006 05 30  1815    53885   65700      0    1.63e+00    0    1.15e+00
2006 05 30  1820    53885   66000      0    1.60e+00    0    1.12e+00
2006 05 30  1825    53885   66300      0    1.62e+00    0    1.14e+00
2006 05 30  1830    53885   66600      0    1.63e+00    0    1.14e+00
2006 05 30  1835    53885   66900      0    1.63e+00    0    1.14e+00
2006 05 30  1840    53885   67200      0    1.61e+00    0    1.13e+00
2006 05 30  1845    53885   67500      0    1.56e+00    0    1.09e+00
2006 05 30  1850    53885   67800      0    1.62e+00    0    1.14e+00
2006 05 30  1855    53885   68100      0    1.62e+00    0    1.13e+00
2006 05 30  1900    53885   68400      0    1.61e+00    0    1.13e+00
2006 05 30  1905    53885   68700      0    1.61e+00    0    1.14e+00
2006 05 30  1910    53885   69000      0    1.61e+00    0    1.14e+00
2006 05 30  1915    53885   69300      0    1.62e+00    0    1.13e+00
2006 05 30  1920    53885   69600      0    1.63e+00    0    1.14e+00
2006 05 30  1925    53885   69900      0    1.63e+00    0    1.14e+00
2006 05 30  1930    53885   70200      9   -1.00e+05    9   -1.00e+05
2006 05 30  1935    53885   70500      9   -1.00e+05    9   -1.00e+05
2006 05 30  1940    53885   70800      9   -1.00e+05    9   -1.00e+05
2006 05 30  1945    53885   71100      9   -1.00e+05    9   -1.00e+05
2006 05 30  1950    53885   71400      9   -1.00e+05    9   -1.00e+05
2006 05 30  1955    53885   71700      0    1.62e+00    0    1.13e+00
2006 05 30  2000    53885   72000      0    1.63e+00    0    1.15e+00
2006 05 30  2005    53885   72300      0    1.59e+00    0    1.12e+00
2006 05 30  2010    53885   72600      0    1.61e+00    0    1.13e+00
2006 05 30  2015    53885   72900      0    1.65e+00    0    1.15e+00
2006 05 30  2020    53885   73200      0    1.60e+00    0    1.10e+00
2006 05 30  2025    53885   73500      0    1.64e+00    0    1.14e+00
2006 05 30  2030    53885   73800      0    1.60e+00    0    1.11e+00
2006 05 30  2035    53885   74100      0    1.60e+00    0    1.13e+00
2006 05 30  2040    53885   74400      0    1.63e+00    0    1.16e+00
2006 05 30  2045    53885   74700      0    1.55e+00    0    1.09e+00
2006 05 30  2050    53885   75000      0    1.60e+00    0    1.11e+00
2006 05 30  2055    53885   75300      0    1.61e+00    0    1.13e+00
2006 05 30  2100    53885   75600      0    1.59e+00    0    1.11e+00
2006 05 30  2105    53885   75900      0    1.62e+00    0    1.14e+00
2006 05 30  2110    53885   76200      0    1.63e+00    0    1.14e+00
2006 05 30  2115    53885   76500      0    1.59e+00    0    1.12e+00
2006 05 30  2120    53885   76800      0    1.62e+00    0    1.14e+00
2006 05 30  2125    53885   77100      0    1.65e+00    0    1.14e+00
2006 05 30  2130    53885   77400      0    1.63e+00    0    1.16e+00
2006 05 30  2135    53885   77700      0    1.63e+00    0    1.13e+00
2006 05 30  2140    53885   78000      0    1.62e+00    0    1.15e+00
2006 05 30  2145    53885   78300      0    1.61e+00    0    1.13e+00
2006 05 30  2150    53885   78600      0    1.64e+00    0    1.14e+00
2006 05 30  2155    53885   78900      0    1.64e+00    0    1.16e+00
2006 05 30  2200    53885   79200      0    1.63e+00    0    1.15e+00
2006 05 30  2205    53885   79500      0    1.63e+00    0    1.15e+00
2006 05 30  2210    53885   79800      0    1.63e+00    0    1.14e+00
2006 05 30  2215    53885   80100      0    1.61e+00    0    1.13e+00
2006 05 30  2220    53885   80400      0    1.63e+00    0    1.12e+00
2006 05 30  2225    53885   80700      0    1.61e+00    0    1.14e+00
2006 05 30  2230    53885   81000      0    1.60e+00    0    1.12e+00
2006 05 30  2235    53885   81300      0    1.64e+00    0    1.15e+00
2006 05 30  2240    53885   81600      0    1.62e+00    0    1.13e+00
2006 05 30  2245    53885   81900      0    1.60e+00    0    1.13e+00
2006 05 30  2250    53885   82200      0    1.63e+00    0    1.15e+00
2006 05 30  2255    53885   82500      0    1.61e+00    0    1.12e+00
2006 05 30  2300    53885   82800      0    1.58e+00    0    1.12e+00
2006 05 30  2305    53885   83100      0    1.61e+00    0    1.13e+00
2006 05 30  2310    53885   83400      0    1.65e+00    0    1.16e+00
2006 05 30  2315    53885   83700      0    1.66e+00    0    1.15e+00
2006 05 30  2320    53885   84000      0    1.65e+00    0    1.16e+00
2006 05 30  2325    53885   84300      0    1.63e+00    0    1.14e+00
2006 05 30  2330    53885   84600      0    1.63e+00    0    1.15e+00
2006 05 30  2335    53885   84900      0    1.65e+00    0    1.15e+00
2006 05 30  2340    53885   85200      0    1.63e+00    0    1.13e+00
2006 05 30  2345    53885   85500      0    1.59e+00    0    1.11e+00
2006 05 30  2350    53885   85800      0    1.64e+00    0    1.16e+00
2006 05 30  2355    53885   86100      0    1.65e+00    0    1.15e+00
