:Data_list: 20060514_ace_sis_5m.txt
:Created: 2006 May 15 0011 UT
# Prepared by the U.S. Dept. of Commerce, NOAA, Space Environment Center.
# Please send comments and suggestions to SEC.Webmaster@noaa.gov 
# 
# Units: proton flux p/cs2-sec-ster
# Status(S): 0 = nominal data, 1 to 8 = bad data record, 9 = no data
# Missing data values: -1.00e+05
# Source: ACE Satellite - Solar Isotope Spectrometer
#
# 5-minute averaged Real-time Integral Flux of High-energy Solar Protons
# 
#                 Modified Seconds
# UT Date   Time   Julian  of the      ---- Integral Proton Flux ----
# YR MO DA  HHMM     Day     Day       S    > 10 MeV    S    > 30 MeV
#--------------------------------------------------------------------
2006 05 14  0000    53869       0      0    1.62e+00    0    1.14e+00
2006 05 14  0005    53869     300      0    1.63e+00    0    1.14e+00
2006 05 14  0010    53869     600      0    1.58e+00    0    1.13e+00
2006 05 14  0015    53869     900      0    1.57e+00    0    1.10e+00
2006 05 14  0020    53869    1200      0    1.58e+00    0    1.10e+00
2006 05 14  0025    53869    1500      0    1.60e+00    0    1.13e+00
2006 05 14  0030    53869    1800      0    1.58e+00    0    1.11e+00
2006 05 14  0035    53869    2100      0    1.55e+00    0    1.07e+00
2006 05 14  0040    53869    2400      0    1.57e+00    0    1.11e+00
2006 05 14  0045    53869    2700      0    1.55e+00    0    1.09e+00
2006 05 14  0050    53869    3000      0    1.62e+00    0    1.15e+00
2006 05 14  0055    53869    3300      0    1.62e+00    0    1.13e+00
2006 05 14  0100    53869    3600      0    1.55e+00    0    1.08e+00
2006 05 14  0105    53869    3900      0    1.56e+00    0    1.11e+00
2006 05 14  0110    53869    4200      0    1.57e+00    0    1.12e+00
2006 05 14  0115    53869    4500      0    1.62e+00    0    1.12e+00
2006 05 14  0120    53869    4800      0    1.57e+00    0    1.10e+00
2006 05 14  0125    53869    5100      0    1.56e+00    0    1.08e+00
2006 05 14  0130    53869    5400      0    1.56e+00    0    1.09e+00
2006 05 14  0135    53869    5700      0    1.58e+00    0    1.10e+00
2006 05 14  0140    53869    6000      0    1.57e+00    0    1.10e+00
2006 05 14  0145    53869    6300      0    1.55e+00    0    1.09e+00
2006 05 14  0150    53869    6600      0    1.61e+00    0    1.13e+00
2006 05 14  0155    53869    6900      0    1.53e+00    0    1.08e+00
2006 05 14  0200    53869    7200      0    1.60e+00    0    1.13e+00
2006 05 14  0205    53869    7500      0    1.55e+00    0    1.10e+00
2006 05 14  0210    53869    7800      0    1.60e+00    0    1.13e+00
2006 05 14  0215    53869    8100      0    1.59e+00    0    1.11e+00
2006 05 14  0220    53869    8400      0    1.59e+00    0    1.11e+00
2006 05 14  0225    53869    8700      0    1.57e+00    0    1.10e+00
2006 05 14  0230    53869    9000      0    1.60e+00    0    1.13e+00
2006 05 14  0235    53869    9300      0    1.59e+00    0    1.12e+00
2006 05 14  0240    53869    9600      0    1.57e+00    0    1.10e+00
2006 05 14  0245    53869    9900      0    1.57e+00    0    1.11e+00
2006 05 14  0250    53869   10200      0    1.57e+00    0    1.09e+00
2006 05 14  0255    53869   10500      0    1.60e+00    0    1.13e+00
2006 05 14  0300    53869   10800      0    1.59e+00    0    1.11e+00
2006 05 14  0305    53869   11100      0    1.58e+00    0    1.11e+00
2006 05 14  0310    53869   11400      0    1.60e+00    0    1.12e+00
2006 05 14  0315    53869   11700      0    1.59e+00    0    1.13e+00
2006 05 14  0320    53869   12000      0    1.55e+00    0    1.09e+00
2006 05 14  0325    53869   12300      0    1.57e+00    0    1.10e+00
2006 05 14  0330    53869   12600      0    1.58e+00    0    1.11e+00
2006 05 14  0335    53869   12900      0    1.61e+00    0    1.13e+00
2006 05 14  0340    53869   13200      0    1.61e+00    0    1.13e+00
2006 05 14  0345    53869   13500      0    1.56e+00    0    1.09e+00
2006 05 14  0350    53869   13800      0    1.62e+00    0    1.14e+00
2006 05 14  0355    53869   14100      0    1.62e+00    0    1.13e+00
2006 05 14  0400    53869   14400      0    1.59e+00    0    1.12e+00
2006 05 14  0405    53869   14700      0    1.59e+00    0    1.11e+00
2006 05 14  0410    53869   15000      0    1.58e+00    0    1.11e+00
2006 05 14  0415    53869   15300      0    1.58e+00    0    1.11e+00
2006 05 14  0420    53869   15600      0    1.58e+00    0    1.10e+00
2006 05 14  0425    53869   15900      0    1.56e+00    0    1.10e+00
2006 05 14  0430    53869   16200      0    1.54e+00    0    1.07e+00
2006 05 14  0435    53869   16500      0    1.58e+00    0    1.10e+00
2006 05 14  0440    53869   16800      0    1.60e+00    0    1.12e+00
2006 05 14  0445    53869   17100      0    1.60e+00    0    1.12e+00
2006 05 14  0450    53869   17400      0    1.59e+00    0    1.13e+00
2006 05 14  0455    53869   17700      0    1.57e+00    0    1.12e+00
2006 05 14  0500    53869   18000      0    1.55e+00    0    1.10e+00
2006 05 14  0505    53869   18300      0    1.57e+00    0    1.10e+00
2006 05 14  0510    53869   18600      0    1.58e+00    0    1.11e+00
2006 05 14  0515    53869   18900      0    1.55e+00    0    1.08e+00
2006 05 14  0520    53869   19200      0    1.60e+00    0    1.13e+00
2006 05 14  0525    53869   19500      0    1.58e+00    0    1.11e+00
2006 05 14  0530    53869   19800      0    1.59e+00    0    1.10e+00
2006 05 14  0535    53869   20100      0    1.63e+00    0    1.15e+00
2006 05 14  0540    53869   20400      0    1.59e+00    0    1.12e+00
2006 05 14  0545    53869   20700      0    1.60e+00    0    1.11e+00
2006 05 14  0550    53869   21000      0    1.56e+00    0    1.10e+00
2006 05 14  0555    53869   21300      0    1.57e+00    0    1.10e+00
2006 05 14  0600    53869   21600      0    1.59e+00    0    1.12e+00
2006 05 14  0605    53869   21900      0    1.55e+00    0    1.09e+00
2006 05 14  0610    53869   22200      0    1.59e+00    0    1.12e+00
2006 05 14  0615    53869   22500      0    1.58e+00    0    1.11e+00
2006 05 14  0620    53869   22800      0    1.56e+00    0    1.08e+00
2006 05 14  0625    53869   23100      0    1.62e+00    0    1.13e+00
2006 05 14  0630    53869   23400      0    1.61e+00    0    1.14e+00
2006 05 14  0635    53869   23700      0    1.56e+00    0    1.10e+00
2006 05 14  0640    53869   24000      0    1.58e+00    0    1.11e+00
2006 05 14  0645    53869   24300      0    1.56e+00    0    1.09e+00
2006 05 14  0650    53869   24600      0    1.56e+00    0    1.11e+00
2006 05 14  0655    53869   24900      0    1.59e+00    0    1.13e+00
2006 05 14  0700    53869   25200      0    1.55e+00    0    1.08e+00
2006 05 14  0705    53869   25500      0    1.58e+00    0    1.10e+00
2006 05 14  0710    53869   25800      0    1.59e+00    0    1.12e+00
2006 05 14  0715    53869   26100      0    1.56e+00    0    1.09e+00
2006 05 14  0720    53869   26400      0    1.58e+00    0    1.11e+00
2006 05 14  0725    53869   26700      0    1.61e+00    0    1.13e+00
2006 05 14  0730    53869   27000      0    1.60e+00    0    1.13e+00
2006 05 14  0735    53869   27300      0    1.60e+00    0    1.12e+00
2006 05 14  0740    53869   27600      0    1.55e+00    0    1.08e+00
2006 05 14  0745    53869   27900      0    1.58e+00    0    1.11e+00
2006 05 14  0750    53869   28200      0    1.58e+00    0    1.11e+00
2006 05 14  0755    53869   28500      0    1.56e+00    0    1.10e+00
2006 05 14  0800    53869   28800      0    1.56e+00    0    1.09e+00
2006 05 14  0805    53869   29100      0    1.58e+00    0    1.11e+00
2006 05 14  0810    53869   29400      0    1.59e+00    0    1.11e+00
2006 05 14  0815    53869   29700      0    1.53e+00    0    1.07e+00
2006 05 14  0820    53869   30000      0    1.58e+00    0    1.12e+00
2006 05 14  0825    53869   30300      0    1.56e+00    0    1.09e+00
2006 05 14  0830    53869   30600      0    1.55e+00    0    1.08e+00
2006 05 14  0835    53869   30900      0    1.59e+00    0    1.12e+00
2006 05 14  0840    53869   31200      0    1.56e+00    0    1.09e+00
2006 05 14  0845    53869   31500      0    1.57e+00    0    1.10e+00
2006 05 14  0850    53869   31800      0    1.60e+00    0    1.12e+00
2006 05 14  0855    53869   32100      0    1.57e+00    0    1.11e+00
2006 05 14  0900    53869   32400      0    1.58e+00    0    1.10e+00
2006 05 14  0905    53869   32700      0    1.55e+00    0    1.09e+00
2006 05 14  0910    53869   33000      0    1.55e+00    0    1.08e+00
2006 05 14  0915    53869   33300      0    1.56e+00    0    1.10e+00
2006 05 14  0920    53869   33600      0    1.58e+00    0    1.11e+00
2006 05 14  0925    53869   33900      0    1.54e+00    0    1.08e+00
2006 05 14  0930    53869   34200      0    1.60e+00    0    1.12e+00
2006 05 14  0935    53869   34500      0    1.58e+00    0    1.12e+00
2006 05 14  0940    53869   34800      0    1.61e+00    0    1.13e+00
2006 05 14  0945    53869   35100      0    1.59e+00    0    1.11e+00
2006 05 14  0950    53869   35400      0    1.58e+00    0    1.11e+00
2006 05 14  0955    53869   35700      0    1.56e+00    0    1.10e+00
2006 05 14  1000    53869   36000      0    1.58e+00    0    1.11e+00
2006 05 14  1005    53869   36300      0    1.56e+00    0    1.09e+00
2006 05 14  1010    53869   36600      0    1.57e+00    0    1.11e+00
2006 05 14  1015    53869   36900      0    1.60e+00    0    1.11e+00
2006 05 14  1020    53869   37200      0    1.58e+00    0    1.10e+00
2006 05 14  1025    53869   37500      0    1.57e+00    0    1.11e+00
2006 05 14  1030    53869   37800      0    1.61e+00    0    1.15e+00
2006 05 14  1035    53869   38100      0    1.58e+00    0    1.11e+00
2006 05 14  1040    53869   38400      0    1.57e+00    0    1.10e+00
2006 05 14  1045    53869   38700      0    1.59e+00    0    1.11e+00
2006 05 14  1050    53869   39000      0    1.59e+00    0    1.11e+00
2006 05 14  1055    53869   39300      0    1.62e+00    0    1.14e+00
2006 05 14  1100    53869   39600      0    1.60e+00    0    1.13e+00
2006 05 14  1105    53869   39900      0    1.61e+00    0    1.13e+00
2006 05 14  1110    53869   40200      0    1.58e+00    0    1.11e+00
2006 05 14  1115    53869   40500      0    1.61e+00    0    1.13e+00
2006 05 14  1120    53869   40800      0    1.62e+00    0    1.14e+00
2006 05 14  1125    53869   41100      0    1.59e+00    0    1.10e+00
2006 05 14  1130    53869   41400      0    1.59e+00    0    1.11e+00
2006 05 14  1135    53869   41700      0    1.57e+00    0    1.11e+00
2006 05 14  1140    53869   42000      0    1.54e+00    0    1.08e+00
2006 05 14  1145    53869   42300      0    1.59e+00    0    1.11e+00
2006 05 14  1150    53869   42600      0    1.58e+00    0    1.10e+00
2006 05 14  1155    53869   42900      0    1.59e+00    0    1.12e+00
2006 05 14  1200    53869   43200      0    1.58e+00    0    1.10e+00
2006 05 14  1205    53869   43500      0    1.58e+00    0    1.10e+00
2006 05 14  1210    53869   43800      0    1.56e+00    0    1.09e+00
2006 05 14  1215    53869   44100      0    1.57e+00    0    1.09e+00
2006 05 14  1220    53869   44400      0    1.55e+00    0    1.09e+00
2006 05 14  1225    53869   44700      0    1.60e+00    0    1.12e+00
2006 05 14  1230    53869   45000      0    1.57e+00    0    1.10e+00
2006 05 14  1235    53869   45300      0    1.60e+00    0    1.13e+00
2006 05 14  1240    53869   45600      0    1.62e+00    0    1.14e+00
2006 05 14  1245    53869   45900      0    1.58e+00    0    1.11e+00
2006 05 14  1250    53869   46200      0    1.56e+00    0    1.09e+00
2006 05 14  1255    53869   46500      0    1.61e+00    0    1.13e+00
2006 05 14  1300    53869   46800      0    1.58e+00    0    1.11e+00
2006 05 14  1305    53869   47100      0    1.56e+00    0    1.09e+00
2006 05 14  1310    53869   47400      0    1.58e+00    0    1.10e+00
2006 05 14  1315    53869   47700      0    1.60e+00    0    1.11e+00
2006 05 14  1320    53869   48000      0    1.57e+00    0    1.10e+00
2006 05 14  1325    53869   48300      0    1.57e+00    0    1.10e+00
2006 05 14  1330    53869   48600      0    1.57e+00    0    1.09e+00
2006 05 14  1335    53869   48900      0    1.57e+00    0    1.09e+00
2006 05 14  1340    53869   49200      0    1.59e+00    0    1.11e+00
2006 05 14  1345    53869   49500      0    1.56e+00    0    1.08e+00
2006 05 14  1350    53869   49800      0    1.63e+00    0    1.14e+00
2006 05 14  1355    53869   50100      0    1.61e+00    0    1.13e+00
2006 05 14  1400    53869   50400      0    1.59e+00    0    1.11e+00
2006 05 14  1405    53869   50700      0    1.64e+00    0    1.15e+00
2006 05 14  1410    53869   51000      0    1.60e+00    0    1.12e+00
2006 05 14  1415    53869   51300      0    1.57e+00    0    1.10e+00
2006 05 14  1420    53869   51600      0    1.60e+00    0    1.12e+00
2006 05 14  1425    53869   51900      0    1.60e+00    0    1.12e+00
2006 05 14  1430    53869   52200      0    1.57e+00    0    1.09e+00
2006 05 14  1435    53869   52500      0    1.61e+00    0    1.12e+00
2006 05 14  1440    53869   52800      0    1.57e+00    0    1.10e+00
2006 05 14  1445    53869   53100      0    1.60e+00    0    1.12e+00
2006 05 14  1450    53869   53400      0    1.58e+00    0    1.10e+00
2006 05 14  1455    53869   53700      0    1.61e+00    0    1.13e+00
2006 05 14  1500    53869   54000      0    1.59e+00    0    1.13e+00
2006 05 14  1505    53869   54300      0    1.58e+00    0    1.10e+00
2006 05 14  1510    53869   54600      0    1.59e+00    0    1.10e+00
2006 05 14  1515    53869   54900      0    1.59e+00    0    1.12e+00
2006 05 14  1520    53869   55200      0    1.54e+00    0    1.08e+00
2006 05 14  1525    53869   55500      0    1.73e+00    0    1.26e+00
2006 05 14  1530    53869   55800      0    1.64e+00    0    1.16e+00
2006 05 14  1535    53869   56100      0    1.61e+00    0    1.13e+00
2006 05 14  1540    53869   56400      0    1.57e+00    0    1.10e+00
2006 05 14  1545    53869   56700      0    1.58e+00    0    1.10e+00
2006 05 14  1550    53869   57000      0    1.59e+00    0    1.12e+00
2006 05 14  1555    53869   57300      0    1.61e+00    0    1.12e+00
2006 05 14  1600    53869   57600      0    1.58e+00    0    1.10e+00
2006 05 14  1605    53869   57900      0    1.58e+00    0    1.10e+00
2006 05 14  1610    53869   58200      0    1.57e+00    0    1.09e+00
2006 05 14  1615    53869   58500      0    1.62e+00    0    1.13e+00
2006 05 14  1620    53869   58800      0    1.58e+00    0    1.11e+00
2006 05 14  1625    53869   59100      0    1.58e+00    0    1.11e+00
2006 05 14  1630    53869   59400      0    1.64e+00    0    1.14e+00
2006 05 14  1635    53869   59700      0    1.59e+00    0    1.10e+00
2006 05 14  1640    53869   60000      0    1.56e+00    0    1.10e+00
2006 05 14  1645    53869   60300      0    1.56e+00    0    1.10e+00
2006 05 14  1650    53869   60600      0    1.60e+00    0    1.11e+00
2006 05 14  1655    53869   60900      0    1.61e+00    0    1.13e+00
2006 05 14  1700    53869   61200      0    1.57e+00    0    1.11e+00
2006 05 14  1705    53869   61500      0    1.58e+00    0    1.10e+00
2006 05 14  1710    53869   61800      0    1.56e+00    0    1.09e+00
2006 05 14  1715    53869   62100      0    1.60e+00    0    1.12e+00
2006 05 14  1720    53869   62400      0    1.59e+00    0    1.11e+00
2006 05 14  1725    53869   62700      0    1.62e+00    0    1.13e+00
2006 05 14  1730    53869   63000      0    1.61e+00    0    1.13e+00
2006 05 14  1735    53869   63300      0    1.59e+00    0    1.12e+00
2006 05 14  1740    53869   63600      0    1.61e+00    0    1.13e+00
2006 05 14  1745    53869   63900      0    1.57e+00    0    1.10e+00
2006 05 14  1750    53869   64200      0    1.61e+00    0    1.14e+00
2006 05 14  1755    53869   64500      0    1.61e+00    0    1.13e+00
2006 05 14  1800    53869   64800      0    1.62e+00    0    1.13e+00
2006 05 14  1805    53869   65100      0    1.59e+00    0    1.13e+00
2006 05 14  1810    53869   65400      0    1.58e+00    0    1.11e+00
2006 05 14  1815    53869   65700      0    1.58e+00    0    1.11e+00
2006 05 14  1820    53869   66000      0    1.61e+00    0    1.13e+00
2006 05 14  1825    53869   66300      0    1.59e+00    0    1.11e+00
2006 05 14  1830    53869   66600      0    1.59e+00    0    1.11e+00
2006 05 14  1835    53869   66900      0    1.58e+00    0    1.11e+00
2006 05 14  1840    53869   67200      0    1.55e+00    0    1.09e+00
2006 05 14  1845    53869   67500      0    1.59e+00    0    1.12e+00
2006 05 14  1850    53869   67800      0    1.59e+00    0    1.12e+00
2006 05 14  1855    53869   68100      0    1.59e+00    0    1.11e+00
2006 05 14  1900    53869   68400      0    1.59e+00    0    1.11e+00
2006 05 14  1905    53869   68700      0    1.60e+00    0    1.12e+00
2006 05 14  1910    53869   69000      0    1.59e+00    0    1.12e+00
2006 05 14  1915    53869   69300      0    1.62e+00    0    1.14e+00
2006 05 14  1920    53869   69600      0    1.61e+00    0    1.12e+00
2006 05 14  1925    53869   69900      0    1.59e+00    0    1.11e+00
2006 05 14  1930    53869   70200      0    1.57e+00    0    1.10e+00
2006 05 14  1935    53869   70500      0    1.57e+00    0    1.11e+00
2006 05 14  1940    53869   70800      0    1.59e+00    0    1.12e+00
2006 05 14  1945    53869   71100      0    1.59e+00    0    1.11e+00
2006 05 14  1950    53869   71400      0    1.59e+00    0    1.11e+00
2006 05 14  1955    53869   71700      0    1.59e+00    0    1.11e+00
2006 05 14  2000    53869   72000      0    1.60e+00    0    1.12e+00
2006 05 14  2005    53869   72300      0    1.59e+00    0    1.12e+00
2006 05 14  2010    53869   72600      0    1.58e+00    0    1.12e+00
2006 05 14  2015    53869   72900      0    1.58e+00    0    1.12e+00
2006 05 14  2020    53869   73200      0    1.59e+00    0    1.10e+00
2006 05 14  2025    53869   73500      0    1.58e+00    0    1.11e+00
2006 05 14  2030    53869   73800      0    1.59e+00    0    1.10e+00
2006 05 14  2035    53869   74100      0    1.59e+00    0    1.11e+00
2006 05 14  2040    53869   74400      0    1.60e+00    0    1.12e+00
2006 05 14  2045    53869   74700      0    1.62e+00    0    1.13e+00
2006 05 14  2050    53869   75000      0    1.60e+00    0    1.11e+00
2006 05 14  2055    53869   75300      0    1.62e+00    0    1.14e+00
2006 05 14  2100    53869   75600      0    1.56e+00    0    1.09e+00
2006 05 14  2105    53869   75900      0    1.62e+00    0    1.13e+00
2006 05 14  2110    53869   76200      0    1.59e+00    0    1.12e+00
2006 05 14  2115    53869   76500      0    1.58e+00    0    1.10e+00
2006 05 14  2120    53869   76800      0    1.67e+00    0    1.17e+00
2006 05 14  2125    53869   77100      0    1.58e+00    0    1.10e+00
2006 05 14  2130    53869   77400      0    1.61e+00    0    1.14e+00
2006 05 14  2135    53869   77700      0    1.61e+00    0    1.12e+00
2006 05 14  2140    53869   78000      0    1.60e+00    0    1.13e+00
2006 05 14  2145    53869   78300      0    1.61e+00    0    1.12e+00
2006 05 14  2150    53869   78600      0    1.60e+00    0    1.13e+00
2006 05 14  2155    53869   78900      0    1.56e+00    0    1.09e+00
2006 05 14  2200    53869   79200      0    1.60e+00    0    1.12e+00
2006 05 14  2205    53869   79500      0    1.58e+00    0    1.11e+00
2006 05 14  2210    53869   79800      0    1.61e+00    0    1.13e+00
2006 05 14  2215    53869   80100      0    1.60e+00    0    1.12e+00
2006 05 14  2220    53869   80400      0    1.60e+00    0    1.12e+00
2006 05 14  2225    53869   80700      0    1.61e+00    0    1.11e+00
2006 05 14  2230    53869   81000      0    1.61e+00    0    1.13e+00
2006 05 14  2235    53869   81300      0    1.58e+00    0    1.11e+00
2006 05 14  2240    53869   81600      0    1.59e+00    0    1.09e+00
2006 05 14  2245    53869   81900      0    1.60e+00    0    1.13e+00
2006 05 14  2250    53869   82200      0    1.57e+00    0    1.09e+00
2006 05 14  2255    53869   82500      0    1.59e+00    0    1.12e+00
2006 05 14  2300    53869   82800      0    1.62e+00    0    1.14e+00
2006 05 14  2305    53869   83100      0    1.63e+00    0    1.15e+00
2006 05 14  2310    53869   83400      0    1.62e+00    0    1.15e+00
2006 05 14  2315    53869   83700      0    1.58e+00    0    1.11e+00
2006 05 14  2320    53869   84000      0    1.58e+00    0    1.10e+00
2006 05 14  2325    53869   84300      0    1.52e+00    0    1.06e+00
2006 05 14  2330    53869   84600      0    1.59e+00    0    1.12e+00
2006 05 14  2335    53869   84900      0    1.59e+00    0    1.11e+00
2006 05 14  2340    53869   85200      0    1.58e+00    0    1.12e+00
2006 05 14  2345    53869   85500      0    1.57e+00    0    1.09e+00
2006 05 14  2350    53869   85800      0    1.57e+00    0    1.09e+00
2006 05 14  2355    53869   86100      0    1.59e+00    0    1.11e+00
