:Data_list: 20060409_ace_sis_5m.txt
:Created: 2006 Apr 10 0011 UT
# Prepared by the U.S. Dept. of Commerce, NOAA, Space Environment Center.
# Please send comments and suggestions to SEC.Webmaster@noaa.gov 
# 
# Units: proton flux p/cs2-sec-ster
# Status(S): 0 = nominal data, 1 to 8 = bad data record, 9 = no data
# Missing data values: -1.00e+05
# Source: ACE Satellite - Solar Isotope Spectrometer
#
# 5-minute averaged Real-time Integral Flux of High-energy Solar Protons
# 
#                 Modified Seconds
# UT Date   Time   Julian  of the      ---- Integral Proton Flux ----
# YR MO DA  HHMM     Day     Day       S    > 10 MeV    S    > 30 MeV
#--------------------------------------------------------------------
2006 04 09  0000    53834       0      0    1.56e+00    0    1.09e+00
2006 04 09  0005    53834     300      0    1.59e+00    0    1.11e+00
2006 04 09  0010    53834     600      0    1.60e+00    0    1.13e+00
2006 04 09  0015    53834     900      0    1.61e+00    0    1.13e+00
2006 04 09  0020    53834    1200      0    1.58e+00    0    1.12e+00
2006 04 09  0025    53834    1500      0    1.58e+00    0    1.10e+00
2006 04 09  0030    53834    1800      0    1.59e+00    0    1.12e+00
2006 04 09  0035    53834    2100      0    1.57e+00    0    1.11e+00
2006 04 09  0040    53834    2400      0    1.56e+00    0    1.08e+00
2006 04 09  0045    53834    2700      0    1.58e+00    0    1.11e+00
2006 04 09  0050    53834    3000      0    1.55e+00    0    1.08e+00
2006 04 09  0055    53834    3300      0    1.58e+00    0    1.10e+00
2006 04 09  0100    53834    3600      0    1.55e+00    0    1.08e+00
2006 04 09  0105    53834    3900      0    1.60e+00    0    1.11e+00
2006 04 09  0110    53834    4200      0    1.57e+00    0    1.08e+00
2006 04 09  0115    53834    4500      0    1.55e+00    0    1.08e+00
2006 04 09  0120    53834    4800      0    1.55e+00    0    1.08e+00
2006 04 09  0125    53834    5100      0    1.61e+00    0    1.14e+00
2006 04 09  0130    53834    5400      0    1.61e+00    0    1.12e+00
2006 04 09  0135    53834    5700      0    1.55e+00    0    1.09e+00
2006 04 09  0140    53834    6000      0    1.55e+00    0    1.08e+00
2006 04 09  0145    53834    6300      0    1.56e+00    0    1.09e+00
2006 04 09  0150    53834    6600      0    1.56e+00    0    1.09e+00
2006 04 09  0155    53834    6900      0    1.59e+00    0    1.11e+00
2006 04 09  0200    53834    7200      0    1.59e+00    0    1.10e+00
2006 04 09  0205    53834    7500      0    1.55e+00    0    1.07e+00
2006 04 09  0210    53834    7800      0    1.59e+00    0    1.12e+00
2006 04 09  0215    53834    8100      0    1.59e+00    0    1.10e+00
2006 04 09  0220    53834    8400      0    1.57e+00    0    1.10e+00
2006 04 09  0225    53834    8700      0    1.60e+00    0    1.11e+00
2006 04 09  0230    53834    9000      0    1.56e+00    0    1.09e+00
2006 04 09  0235    53834    9300      0    1.59e+00    0    1.11e+00
2006 04 09  0240    53834    9600      0    1.71e+00    0    1.24e+00
2006 04 09  0245    53834    9900      0    1.57e+00    0    1.11e+00
2006 04 09  0250    53834   10200      0    1.55e+00    0    1.08e+00
2006 04 09  0255    53834   10500      0    1.55e+00    0    1.09e+00
2006 04 09  0300    53834   10800      0    1.53e+00    0    1.08e+00
2006 04 09  0305    53834   11100      0    1.58e+00    0    1.12e+00
2006 04 09  0310    53834   11400      0    1.56e+00    0    1.09e+00
2006 04 09  0315    53834   11700      0    1.56e+00    0    1.09e+00
2006 04 09  0320    53834   12000      0    1.60e+00    0    1.13e+00
2006 04 09  0325    53834   12300      0    1.57e+00    0    1.11e+00
2006 04 09  0330    53834   12600      0    1.54e+00    0    1.08e+00
2006 04 09  0335    53834   12900      0    1.58e+00    0    1.12e+00
2006 04 09  0340    53834   13200      0    1.55e+00    0    1.09e+00
2006 04 09  0345    53834   13500      0    1.56e+00    0    1.10e+00
2006 04 09  0350    53834   13800      0    1.58e+00    0    1.11e+00
2006 04 09  0355    53834   14100      0    1.60e+00    0    1.12e+00
2006 04 09  0400    53834   14400      0    1.58e+00    0    1.12e+00
2006 04 09  0405    53834   14700      0    1.55e+00    0    1.09e+00
2006 04 09  0410    53834   15000      0    1.57e+00    0    1.09e+00
2006 04 09  0415    53834   15300      0    1.57e+00    0    1.10e+00
2006 04 09  0420    53834   15600      0    1.60e+00    0    1.11e+00
2006 04 09  0425    53834   15900      0    1.62e+00    0    1.15e+00
2006 04 09  0430    53834   16200      0    1.65e+00    0    1.17e+00
2006 04 09  0435    53834   16500      0    1.57e+00    0    1.11e+00
2006 04 09  0440    53834   16800      0    1.53e+00    0    1.08e+00
2006 04 09  0445    53834   17100      0    1.58e+00    0    1.11e+00
2006 04 09  0450    53834   17400      0    1.60e+00    0    1.12e+00
2006 04 09  0455    53834   17700      0    1.60e+00    0    1.14e+00
2006 04 09  0500    53834   18000      0    1.57e+00    0    1.10e+00
2006 04 09  0505    53834   18300      0    1.59e+00    0    1.12e+00
2006 04 09  0510    53834   18600      0    1.58e+00    0    1.10e+00
2006 04 09  0515    53834   18900      0    1.57e+00    0    1.10e+00
2006 04 09  0520    53834   19200      0    1.54e+00    0    1.07e+00
2006 04 09  0525    53834   19500      0    1.58e+00    0    1.13e+00
2006 04 09  0530    53834   19800      0    1.53e+00    0    1.07e+00
2006 04 09  0535    53834   20100      0    1.56e+00    0    1.08e+00
2006 04 09  0540    53834   20400      0    1.57e+00    0    1.11e+00
2006 04 09  0545    53834   20700      0    1.56e+00    0    1.08e+00
2006 04 09  0550    53834   21000      0    1.58e+00    0    1.11e+00
2006 04 09  0555    53834   21300      0    1.57e+00    0    1.10e+00
2006 04 09  0600    53834   21600      0    1.49e+00    0    1.04e+00
2006 04 09  0605    53834   21900      0    1.55e+00    0    1.08e+00
2006 04 09  0610    53834   22200      0    1.54e+00    0    1.09e+00
2006 04 09  0615    53834   22500      0    1.57e+00    0    1.09e+00
2006 04 09  0620    53834   22800      0    1.56e+00    0    1.11e+00
2006 04 09  0625    53834   23100      0    1.52e+00    0    1.06e+00
2006 04 09  0630    53834   23400      0    1.56e+00    0    1.10e+00
2006 04 09  0635    53834   23700      0    1.58e+00    0    1.10e+00
2006 04 09  0640    53834   24000      0    1.57e+00    0    1.11e+00
2006 04 09  0645    53834   24300      0    1.57e+00    0    1.11e+00
2006 04 09  0650    53834   24600      0    1.57e+00    0    1.10e+00
2006 04 09  0655    53834   24900      0    1.57e+00    0    1.11e+00
2006 04 09  0700    53834   25200      0    1.55e+00    0    1.09e+00
2006 04 09  0705    53834   25500      0    1.51e+00    0    1.05e+00
2006 04 09  0710    53834   25800      0    1.57e+00    0    1.09e+00
2006 04 09  0715    53834   26100      0    1.52e+00    0    1.06e+00
2006 04 09  0720    53834   26400      0    1.56e+00    0    1.10e+00
2006 04 09  0725    53834   26700      0    1.56e+00    0    1.08e+00
2006 04 09  0730    53834   27000      0    1.58e+00    0    1.11e+00
2006 04 09  0735    53834   27300      0    1.57e+00    0    1.10e+00
2006 04 09  0740    53834   27600      0    1.54e+00    0    1.08e+00
2006 04 09  0745    53834   27900      0    1.55e+00    0    1.10e+00
2006 04 09  0750    53834   28200      0    1.54e+00    0    1.08e+00
2006 04 09  0755    53834   28500      0    1.55e+00    0    1.09e+00
2006 04 09  0800    53834   28800      0    1.55e+00    0    1.09e+00
2006 04 09  0805    53834   29100      0    1.55e+00    0    1.08e+00
2006 04 09  0810    53834   29400      0    1.55e+00    0    1.09e+00
2006 04 09  0815    53834   29700      0    1.57e+00    0    1.11e+00
2006 04 09  0820    53834   30000      0    1.58e+00    0    1.12e+00
2006 04 09  0825    53834   30300      0    1.52e+00    0    1.07e+00
2006 04 09  0830    53834   30600      0    1.52e+00    0    1.06e+00
2006 04 09  0835    53834   30900      0    1.54e+00    0    1.08e+00
2006 04 09  0840    53834   31200      0    1.55e+00    0    1.09e+00
2006 04 09  0845    53834   31500      0    1.55e+00    0    1.09e+00
2006 04 09  0850    53834   31800      0    1.56e+00    0    1.09e+00
2006 04 09  0855    53834   32100      0    1.55e+00    0    1.09e+00
2006 04 09  0900    53834   32400      0    1.56e+00    0    1.09e+00
2006 04 09  0905    53834   32700      0    1.58e+00    0    1.11e+00
2006 04 09  0910    53834   33000      0    1.53e+00    0    1.07e+00
2006 04 09  0915    53834   33300      0    1.55e+00    0    1.08e+00
2006 04 09  0920    53834   33600      0    1.57e+00    0    1.10e+00
2006 04 09  0925    53834   33900      0    1.55e+00    0    1.08e+00
2006 04 09  0930    53834   34200      0    1.57e+00    0    1.10e+00
2006 04 09  0935    53834   34500      0    1.54e+00    0    1.07e+00
2006 04 09  0940    53834   34800      0    1.58e+00    0    1.11e+00
2006 04 09  0945    53834   35100      0    1.52e+00    0    1.07e+00
2006 04 09  0950    53834   35400      0    1.56e+00    0    1.10e+00
2006 04 09  0955    53834   35700      0    1.54e+00    0    1.07e+00
2006 04 09  1000    53834   36000      0    1.55e+00    0    1.09e+00
2006 04 09  1005    53834   36300      0    1.57e+00    0    1.11e+00
2006 04 09  1010    53834   36600      0    1.56e+00    0    1.09e+00
2006 04 09  1015    53834   36900      0    1.56e+00    0    1.08e+00
2006 04 09  1020    53834   37200      0    1.52e+00    0    1.06e+00
2006 04 09  1025    53834   37500      0    1.56e+00    0    1.11e+00
2006 04 09  1030    53834   37800      0    1.53e+00    0    1.07e+00
2006 04 09  1035    53834   38100      0    1.57e+00    0    1.09e+00
2006 04 09  1040    53834   38400      0    1.54e+00    0    1.08e+00
2006 04 09  1045    53834   38700      0    1.56e+00    0    1.10e+00
2006 04 09  1050    53834   39000      0    1.55e+00    0    1.09e+00
2006 04 09  1055    53834   39300      0    1.54e+00    0    1.09e+00
2006 04 09  1100    53834   39600      0    1.54e+00    0    1.08e+00
2006 04 09  1105    53834   39900      0    1.56e+00    0    1.10e+00
2006 04 09  1110    53834   40200      0    1.49e+00    0    1.05e+00
2006 04 09  1115    53834   40500      0    1.52e+00    0    1.06e+00
2006 04 09  1120    53834   40800      0    1.52e+00    0    1.07e+00
2006 04 09  1125    53834   41100      0    1.54e+00    0    1.08e+00
2006 04 09  1130    53834   41400      0    1.53e+00    0    1.08e+00
2006 04 09  1135    53834   41700      0    1.52e+00    0    1.06e+00
2006 04 09  1140    53834   42000      0    1.51e+00    0    1.06e+00
2006 04 09  1145    53834   42300      0    1.50e+00    0    1.04e+00
2006 04 09  1150    53834   42600      0    1.52e+00    0    1.07e+00
2006 04 09  1155    53834   42900      0    1.50e+00    0    1.05e+00
2006 04 09  1200    53834   43200      0    1.50e+00    0    1.05e+00
2006 04 09  1205    53834   43500      0    1.54e+00    0    1.08e+00
2006 04 09  1210    53834   43800      0    1.54e+00    0    1.08e+00
2006 04 09  1215    53834   44100      0    1.52e+00    0    1.07e+00
2006 04 09  1220    53834   44400      0    1.52e+00    0    1.06e+00
2006 04 09  1225    53834   44700      0    1.53e+00    0    1.07e+00
2006 04 09  1230    53834   45000      0    1.49e+00    0    1.05e+00
2006 04 09  1235    53834   45300      0    1.55e+00    0    1.08e+00
2006 04 09  1240    53834   45600      0    1.56e+00    0    1.12e+00
2006 04 09  1245    53834   45900      0    1.55e+00    0    1.10e+00
2006 04 09  1250    53834   46200      0    1.51e+00    0    1.06e+00
2006 04 09  1255    53834   46500      0    1.51e+00    0    1.06e+00
2006 04 09  1300    53834   46800      0    1.51e+00    0    1.05e+00
2006 04 09  1305    53834   47100      0    1.56e+00    0    1.10e+00
2006 04 09  1310    53834   47400      0    1.50e+00    0    1.06e+00
2006 04 09  1315    53834   47700      0    1.54e+00    0    1.08e+00
2006 04 09  1320    53834   48000      0    1.51e+00    0    1.06e+00
2006 04 09  1325    53834   48300      0    1.55e+00    0    1.08e+00
2006 04 09  1330    53834   48600      0    1.49e+00    0    1.06e+00
2006 04 09  1335    53834   48900      0    1.54e+00    0    1.09e+00
2006 04 09  1340    53834   49200      0    1.51e+00    0    1.07e+00
2006 04 09  1345    53834   49500      0    1.52e+00    0    1.08e+00
2006 04 09  1350    53834   49800      0    1.54e+00    0    1.08e+00
2006 04 09  1355    53834   50100      0    1.56e+00    0    1.10e+00
2006 04 09  1400    53834   50400      0    1.49e+00    0    1.04e+00
2006 04 09  1405    53834   50700      0    1.53e+00    0    1.06e+00
2006 04 09  1410    53834   51000      0    1.49e+00    0    1.07e+00
2006 04 09  1415    53834   51300      0    1.50e+00    0    1.05e+00
2006 04 09  1420    53834   51600      0    1.57e+00    0    1.11e+00
2006 04 09  1425    53834   51900      0    1.56e+00    0    1.09e+00
2006 04 09  1430    53834   52200      0    1.54e+00    0    1.07e+00
2006 04 09  1435    53834   52500      0    1.53e+00    0    1.07e+00
2006 04 09  1440    53834   52800      0    1.54e+00    0    1.07e+00
2006 04 09  1445    53834   53100      0    1.54e+00    0    1.09e+00
2006 04 09  1450    53834   53400      0    1.53e+00    0    1.07e+00
2006 04 09  1455    53834   53700      0    1.54e+00    0    1.09e+00
2006 04 09  1500    53834   54000      0    1.54e+00    0    1.07e+00
2006 04 09  1505    53834   54300      0    1.52e+00    0    1.07e+00
2006 04 09  1510    53834   54600      0    1.55e+00    0    1.08e+00
2006 04 09  1515    53834   54900      0    1.51e+00    0    1.05e+00
2006 04 09  1520    53834   55200      0    1.53e+00    0    1.07e+00
2006 04 09  1525    53834   55500      0    1.53e+00    0    1.08e+00
2006 04 09  1530    53834   55800      0    1.52e+00    0    1.07e+00
2006 04 09  1535    53834   56100      0    1.52e+00    0    1.08e+00
2006 04 09  1540    53834   56400      0    1.56e+00    0    1.10e+00
2006 04 09  1545    53834   56700      0    1.53e+00    0    1.07e+00
2006 04 09  1550    53834   57000      0    1.52e+00    0    1.06e+00
2006 04 09  1555    53834   57300      0    1.55e+00    0    1.10e+00
2006 04 09  1600    53834   57600      0    1.53e+00    0    1.07e+00
2006 04 09  1605    53834   57900      0    1.51e+00    0    1.06e+00
2006 04 09  1610    53834   58200      0    1.51e+00    0    1.04e+00
2006 04 09  1615    53834   58500      0    1.55e+00    0    1.08e+00
2006 04 09  1620    53834   58800      0    1.55e+00    0    1.09e+00
2006 04 09  1625    53834   59100      0    1.55e+00    0    1.09e+00
2006 04 09  1630    53834   59400      0    1.54e+00    0    1.09e+00
2006 04 09  1635    53834   59700      0    1.53e+00    0    1.07e+00
2006 04 09  1640    53834   60000      0    1.51e+00    0    1.06e+00
2006 04 09  1645    53834   60300      0    1.53e+00    0    1.07e+00
2006 04 09  1650    53834   60600      0    1.56e+00    0    1.10e+00
2006 04 09  1655    53834   60900      0    1.54e+00    0    1.08e+00
2006 04 09  1700    53834   61200      0    1.56e+00    0    1.09e+00
2006 04 09  1705    53834   61500      0    1.51e+00    0    1.07e+00
2006 04 09  1710    53834   61800      0    1.52e+00    0    1.07e+00
2006 04 09  1715    53834   62100      0    1.48e+00    0    1.03e+00
2006 04 09  1720    53834   62400      0    1.52e+00    0    1.08e+00
2006 04 09  1725    53834   62700      0    1.47e+00    0    1.04e+00
2006 04 09  1730    53834   63000      0    1.55e+00    0    1.09e+00
2006 04 09  1735    53834   63300      0    1.52e+00    0    1.06e+00
2006 04 09  1740    53834   63600      0    1.54e+00    0    1.07e+00
2006 04 09  1745    53834   63900      0    1.52e+00    0    1.07e+00
2006 04 09  1750    53834   64200      0    1.52e+00    0    1.07e+00
2006 04 09  1755    53834   64500      0    1.53e+00    0    1.07e+00
2006 04 09  1800    53834   64800      0    1.52e+00    0    1.07e+00
2006 04 09  1805    53834   65100      0    1.53e+00    0    1.07e+00
2006 04 09  1810    53834   65400      0    1.56e+00    0    1.10e+00
2006 04 09  1815    53834   65700      0    1.54e+00    0    1.08e+00
2006 04 09  1820    53834   66000      0    1.49e+00    0    1.04e+00
2006 04 09  1825    53834   66300      0    1.52e+00    0    1.08e+00
2006 04 09  1830    53834   66600      0    1.50e+00    0    1.05e+00
2006 04 09  1835    53834   66900      0    1.53e+00    0    1.08e+00
2006 04 09  1840    53834   67200      0    1.54e+00    0    1.09e+00
2006 04 09  1845    53834   67500      0    1.55e+00    0    1.10e+00
2006 04 09  1850    53834   67800      0    1.53e+00    0    1.07e+00
2006 04 09  1855    53834   68100      0    1.51e+00    0    1.06e+00
2006 04 09  1900    53834   68400      0    1.53e+00    0    1.08e+00
2006 04 09  1905    53834   68700      0    1.52e+00    0    1.07e+00
2006 04 09  1910    53834   69000      0    1.50e+00    0    1.05e+00
2006 04 09  1915    53834   69300      0    1.57e+00    0    1.11e+00
2006 04 09  1920    53834   69600      0    1.52e+00    0    1.06e+00
2006 04 09  1925    53834   69900      0    1.53e+00    0    1.07e+00
2006 04 09  1930    53834   70200      0    1.51e+00    0    1.07e+00
2006 04 09  1935    53834   70500      0    1.54e+00    0    1.09e+00
2006 04 09  1940    53834   70800      0    1.52e+00    0    1.06e+00
2006 04 09  1945    53834   71100      0    1.53e+00    0    1.06e+00
2006 04 09  1950    53834   71400      0    1.54e+00    0    1.08e+00
2006 04 09  1955    53834   71700      0    1.54e+00    0    1.07e+00
2006 04 09  2000    53834   72000      0    1.53e+00    0    1.08e+00
2006 04 09  2005    53834   72300      0    1.53e+00    0    1.07e+00
2006 04 09  2010    53834   72600      0    1.53e+00    0    1.06e+00
2006 04 09  2015    53834   72900      0    1.53e+00    0    1.07e+00
2006 04 09  2020    53834   73200      0    1.52e+00    0    1.06e+00
2006 04 09  2025    53834   73500      0    1.55e+00    0    1.08e+00
2006 04 09  2030    53834   73800      0    1.51e+00    0    1.06e+00
2006 04 09  2035    53834   74100      0    1.50e+00    0    1.04e+00
2006 04 09  2040    53834   74400      0    1.50e+00    0    1.06e+00
2006 04 09  2045    53834   74700      0    1.45e+00    0    1.02e+00
2006 04 09  2050    53834   75000      0    1.50e+00    0    1.07e+00
2006 04 09  2055    53834   75300      0    1.45e+00    0    1.01e+00
2006 04 09  2100    53834   75600      0    1.52e+00    0    1.07e+00
2006 04 09  2105    53834   75900      0    1.52e+00    0    1.07e+00
2006 04 09  2110    53834   76200      0    1.51e+00    0    1.06e+00
2006 04 09  2115    53834   76500      0    1.53e+00    0    1.07e+00
2006 04 09  2120    53834   76800      0    1.53e+00    0    1.08e+00
2006 04 09  2125    53834   77100      0    1.50e+00    0    1.06e+00
2006 04 09  2130    53834   77400      0    1.51e+00    0    1.06e+00
2006 04 09  2135    53834   77700      0    1.53e+00    0    1.08e+00
2006 04 09  2140    53834   78000      0    1.49e+00    0    1.04e+00
2006 04 09  2145    53834   78300      0    1.55e+00    0    1.08e+00
2006 04 09  2150    53834   78600      0    1.56e+00    0    1.08e+00
2006 04 09  2155    53834   78900      0    1.52e+00    0    1.05e+00
2006 04 09  2200    53834   79200      0    1.52e+00    0    1.07e+00
2006 04 09  2205    53834   79500      0    1.50e+00    0    1.06e+00
2006 04 09  2210    53834   79800      0    1.53e+00    0    1.08e+00
2006 04 09  2215    53834   80100      0    1.50e+00    0    1.06e+00
2006 04 09  2220    53834   80400      0    1.52e+00    0    1.07e+00
2006 04 09  2225    53834   80700      0    1.52e+00    0    1.07e+00
2006 04 09  2230    53834   81000      0    1.52e+00    0    1.07e+00
2006 04 09  2235    53834   81300      0    1.52e+00    0    1.08e+00
2006 04 09  2240    53834   81600      0    1.49e+00    0    1.05e+00
2006 04 09  2245    53834   81900      0    1.50e+00    0    1.06e+00
2006 04 09  2250    53834   82200      0    1.47e+00    0    1.03e+00
2006 04 09  2255    53834   82500      0    1.48e+00    0    1.04e+00
2006 04 09  2300    53834   82800      0    1.49e+00    0    1.03e+00
2006 04 09  2305    53834   83100      0    1.51e+00    0    1.06e+00
2006 04 09  2310    53834   83400      0    1.51e+00    0    1.06e+00
2006 04 09  2315    53834   83700      0    1.53e+00    0    1.07e+00
2006 04 09  2320    53834   84000      0    1.55e+00    0    1.09e+00
2006 04 09  2325    53834   84300      0    1.51e+00    0    1.07e+00
2006 04 09  2330    53834   84600      0    1.53e+00    0    1.08e+00
2006 04 09  2335    53834   84900      0    1.52e+00    0    1.06e+00
2006 04 09  2340    53834   85200      0    1.55e+00    0    1.10e+00
2006 04 09  2345    53834   85500      0    1.52e+00    0    1.07e+00
2006 04 09  2350    53834   85800      0    1.54e+00    0    1.08e+00
2006 04 09  2355    53834   86100      0    1.51e+00    0    1.05e+00
