:Data_list: 20061020_ace_sis_5m.txt
:Created: 2006 Oct 21 0011 UT
# Prepared by the U.S. Dept. of Commerce, NOAA, Space Environment Center.
# Please send comments and suggestions to SEC.Webmaster@noaa.gov 
# 
# Units: proton flux p/cs2-sec-ster
# Status(S): 0 = nominal data, 1 to 8 = bad data record, 9 = no data
# Missing data values: -1.00e+05
# Source: ACE Satellite - Solar Isotope Spectrometer
#
# 5-minute averaged Real-time Integral Flux of High-energy Solar Protons
# 
#                 Modified Seconds
# UT Date   Time   Julian  of the      ---- Integral Proton Flux ----
# YR MO DA  HHMM     Day     Day       S    > 10 MeV    S    > 30 MeV
#--------------------------------------------------------------------
2006 10 20  0000    54028       0      0    1.76e+00    0    1.24e+00
2006 10 20  0005    54028     300      0    1.72e+00    0    1.20e+00
2006 10 20  0010    54028     600      0    1.71e+00    0    1.21e+00
2006 10 20  0015    54028     900      0    1.73e+00    0    1.21e+00
2006 10 20  0020    54028    1200      0    1.71e+00    0    1.20e+00
2006 10 20  0025    54028    1500      0    1.74e+00    0    1.22e+00
2006 10 20  0030    54028    1800      0    1.75e+00    0    1.22e+00
2006 10 20  0035    54028    2100      0    1.70e+00    0    1.20e+00
2006 10 20  0040    54028    2400      0    1.75e+00    0    1.23e+00
2006 10 20  0045    54028    2700      0    1.72e+00    0    1.21e+00
2006 10 20  0050    54028    3000      0    1.78e+00    0    1.27e+00
2006 10 20  0055    54028    3300      0    1.72e+00    0    1.21e+00
2006 10 20  0100    54028    3600      0    1.72e+00    0    1.20e+00
2006 10 20  0105    54028    3900      0    1.73e+00    0    1.22e+00
2006 10 20  0110    54028    4200      0    1.73e+00    0    1.22e+00
2006 10 20  0115    54028    4500      0    1.74e+00    0    1.21e+00
2006 10 20  0120    54028    4800      0    1.68e+00    0    1.19e+00
2006 10 20  0125    54028    5100      0    1.68e+00    0    1.17e+00
2006 10 20  0130    54028    5400      0    1.73e+00    0    1.20e+00
2006 10 20  0135    54028    5700      0    1.70e+00    0    1.19e+00
2006 10 20  0140    54028    6000      0    1.69e+00    0    1.18e+00
2006 10 20  0145    54028    6300      0    1.75e+00    0    1.22e+00
2006 10 20  0150    54028    6600      0    1.68e+00    0    1.19e+00
2006 10 20  0155    54028    6900      0    1.69e+00    0    1.18e+00
2006 10 20  0200    54028    7200      0    1.71e+00    0    1.19e+00
2006 10 20  0205    54028    7500      0    1.71e+00    0    1.20e+00
2006 10 20  0210    54028    7800      0    1.73e+00    0    1.20e+00
2006 10 20  0215    54028    8100      0    1.73e+00    0    1.21e+00
2006 10 20  0220    54028    8400      0    1.72e+00    0    1.20e+00
2006 10 20  0225    54028    8700      0    1.73e+00    0    1.21e+00
2006 10 20  0230    54028    9000      0    1.70e+00    0    1.19e+00
2006 10 20  0235    54028    9300      0    1.72e+00    0    1.21e+00
2006 10 20  0240    54028    9600      0    1.70e+00    0    1.19e+00
2006 10 20  0245    54028    9900      0    1.71e+00    0    1.20e+00
2006 10 20  0250    54028   10200      0    1.71e+00    0    1.19e+00
2006 10 20  0255    54028   10500      0    1.71e+00    0    1.20e+00
2006 10 20  0300    54028   10800      0    1.73e+00    0    1.21e+00
2006 10 20  0305    54028   11100      0    1.73e+00    0    1.21e+00
2006 10 20  0310    54028   11400      0    1.69e+00    0    1.17e+00
2006 10 20  0315    54028   11700      0    1.70e+00    0    1.18e+00
2006 10 20  0320    54028   12000      0    1.75e+00    0    1.21e+00
2006 10 20  0325    54028   12300      0    1.77e+00    0    1.24e+00
2006 10 20  0330    54028   12600      0    1.68e+00    0    1.18e+00
2006 10 20  0335    54028   12900      0    1.70e+00    0    1.19e+00
2006 10 20  0340    54028   13200      0    1.71e+00    0    1.19e+00
2006 10 20  0345    54028   13500      0    1.73e+00    0    1.20e+00
2006 10 20  0350    54028   13800      0    1.71e+00    0    1.19e+00
2006 10 20  0355    54028   14100      0    1.73e+00    0    1.23e+00
2006 10 20  0400    54028   14400      0    1.72e+00    0    1.22e+00
2006 10 20  0405    54028   14700      0    1.73e+00    0    1.21e+00
2006 10 20  0410    54028   15000      0    1.71e+00    0    1.19e+00
2006 10 20  0415    54028   15300      0    1.70e+00    0    1.21e+00
2006 10 20  0420    54028   15600      0    1.71e+00    0    1.19e+00
2006 10 20  0425    54028   15900      0    1.75e+00    0    1.22e+00
2006 10 20  0430    54028   16200      0    1.69e+00    0    1.18e+00
2006 10 20  0435    54028   16500      9   -1.00e+05    9   -1.00e+05
2006 10 20  0440    54028   16800      0    1.71e+00    0    1.21e+00
2006 10 20  0445    54028   17100      0    1.75e+00    0    1.24e+00
2006 10 20  0450    54028   17400      0    1.73e+00    0    1.22e+00
2006 10 20  0455    54028   17700      0    1.71e+00    0    1.19e+00
2006 10 20  0500    54028   18000      0    1.74e+00    0    1.23e+00
2006 10 20  0505    54028   18300      0    1.74e+00    0    1.22e+00
2006 10 20  0510    54028   18600      0    1.73e+00    0    1.22e+00
2006 10 20  0515    54028   18900      0    1.77e+00    0    1.25e+00
2006 10 20  0520    54028   19200      0    1.76e+00    0    1.25e+00
2006 10 20  0525    54028   19500      9   -1.00e+05    9   -1.00e+05
2006 10 20  0530    54028   19800      0    1.68e+00    0    1.15e+00
2006 10 20  0535    54028   20100      0    1.76e+00    0    1.24e+00
2006 10 20  0540    54028   20400      0    1.69e+00    0    1.18e+00
2006 10 20  0545    54028   20700      0    1.72e+00    0    1.21e+00
2006 10 20  0550    54028   21000      0    1.72e+00    0    1.21e+00
2006 10 20  0555    54028   21300      0    1.72e+00    0    1.20e+00
2006 10 20  0600    54028   21600      0    1.69e+00    0    1.20e+00
2006 10 20  0605    54028   21900      9   -1.00e+05    9   -1.00e+05
2006 10 20  0610    54028   22200      9   -1.00e+05    9   -1.00e+05
2006 10 20  0615    54028   22500      9   -1.00e+05    9   -1.00e+05
2006 10 20  0620    54028   22800      9   -1.00e+05    9   -1.00e+05
2006 10 20  0625    54028   23100      9   -1.00e+05    9   -1.00e+05
2006 10 20  0630    54028   23400      9   -1.00e+05    9   -1.00e+05
2006 10 20  0635    54028   23700      9   -1.00e+05    9   -1.00e+05
2006 10 20  0640    54028   24000      9   -1.00e+05    9   -1.00e+05
2006 10 20  0645    54028   24300      9   -1.00e+05    9   -1.00e+05
2006 10 20  0650    54028   24600      9   -1.00e+05    9   -1.00e+05
2006 10 20  0655    54028   24900      9   -1.00e+05    9   -1.00e+05
2006 10 20  0700    54028   25200      9   -1.00e+05    9   -1.00e+05
2006 10 20  0705    54028   25500      9   -1.00e+05    9   -1.00e+05
2006 10 20  0710    54028   25800      9   -1.00e+05    9   -1.00e+05
2006 10 20  0715    54028   26100      9   -1.00e+05    9   -1.00e+05
2006 10 20  0720    54028   26400      0    1.74e+00    0    1.23e+00
2006 10 20  0725    54028   26700      0    1.71e+00    0    1.19e+00
2006 10 20  0730    54028   27000      0    1.68e+00    0    1.17e+00
2006 10 20  0735    54028   27300      0    1.73e+00    0    1.22e+00
2006 10 20  0740    54028   27600      0    1.69e+00    0    1.20e+00
2006 10 20  0745    54028   27900      0    1.74e+00    0    1.22e+00
2006 10 20  0750    54028   28200      0    1.70e+00    0    1.20e+00
2006 10 20  0755    54028   28500      0    1.69e+00    0    1.19e+00
2006 10 20  0800    54028   28800      0    1.71e+00    0    1.20e+00
2006 10 20  0805    54028   29100      0    1.73e+00    0    1.21e+00
2006 10 20  0810    54028   29400      0    1.66e+00    0    1.16e+00
2006 10 20  0815    54028   29700      0    1.69e+00    0    1.17e+00
2006 10 20  0820    54028   30000      0    1.69e+00    0    1.18e+00
2006 10 20  0825    54028   30300      0    1.69e+00    0    1.19e+00
2006 10 20  0830    54028   30600      0    1.66e+00    0    1.17e+00
2006 10 20  0835    54028   30900      0    1.66e+00    0    1.15e+00
2006 10 20  0840    54028   31200      0    1.67e+00    0    1.17e+00
2006 10 20  0845    54028   31500      0    1.66e+00    0    1.17e+00
2006 10 20  0850    54028   31800      0    1.70e+00    0    1.19e+00
2006 10 20  0855    54028   32100      0    1.68e+00    0    1.16e+00
2006 10 20  0900    54028   32400      0    1.68e+00    0    1.18e+00
2006 10 20  0905    54028   32700      0    1.72e+00    0    1.21e+00
2006 10 20  0910    54028   33000      0    1.67e+00    0    1.16e+00
2006 10 20  0915    54028   33300      0    1.69e+00    0    1.17e+00
2006 10 20  0920    54028   33600      0    1.71e+00    0    1.21e+00
2006 10 20  0925    54028   33900      0    1.70e+00    0    1.19e+00
2006 10 20  0930    54028   34200      0    1.69e+00    0    1.18e+00
2006 10 20  0935    54028   34500      0    1.70e+00    0    1.19e+00
2006 10 20  0940    54028   34800      0    1.67e+00    0    1.19e+00
2006 10 20  0945    54028   35100      0    1.69e+00    0    1.18e+00
2006 10 20  0950    54028   35400      0    1.69e+00    0    1.19e+00
2006 10 20  0955    54028   35700      0    1.70e+00    0    1.18e+00
2006 10 20  1000    54028   36000      0    1.64e+00    0    1.14e+00
2006 10 20  1005    54028   36300      0    1.69e+00    0    1.17e+00
2006 10 20  1010    54028   36600      0    1.70e+00    0    1.19e+00
2006 10 20  1015    54028   36900      0    1.64e+00    0    1.16e+00
2006 10 20  1020    54028   37200      0    1.66e+00    0    1.17e+00
2006 10 20  1025    54028   37500      0    1.69e+00    0    1.19e+00
2006 10 20  1030    54028   37800      0    1.66e+00    0    1.17e+00
2006 10 20  1035    54028   38100      0    1.69e+00    0    1.18e+00
2006 10 20  1040    54028   38400      0    1.67e+00    0    1.17e+00
2006 10 20  1045    54028   38700      0    1.69e+00    0    1.19e+00
2006 10 20  1050    54028   39000      0    1.68e+00    0    1.18e+00
2006 10 20  1055    54028   39300      0    1.68e+00    0    1.18e+00
2006 10 20  1100    54028   39600      0    1.71e+00    0    1.19e+00
2006 10 20  1105    54028   39900      0    1.64e+00    0    1.15e+00
2006 10 20  1110    54028   40200      0    1.67e+00    0    1.18e+00
2006 10 20  1115    54028   40500      0    1.68e+00    0    1.17e+00
2006 10 20  1120    54028   40800      0    1.67e+00    0    1.16e+00
2006 10 20  1125    54028   41100      0    1.68e+00    0    1.18e+00
2006 10 20  1130    54028   41400      0    1.70e+00    0    1.20e+00
2006 10 20  1135    54028   41700      0    1.68e+00    0    1.19e+00
2006 10 20  1140    54028   42000      0    1.69e+00    0    1.19e+00
2006 10 20  1145    54028   42300      0    1.69e+00    0    1.18e+00
2006 10 20  1150    54028   42600      0    1.67e+00    0    1.18e+00
2006 10 20  1155    54028   42900      0    1.67e+00    0    1.17e+00
2006 10 20  1200    54028   43200      0    1.67e+00    0    1.18e+00
2006 10 20  1205    54028   43500      0    1.68e+00    0    1.18e+00
2006 10 20  1210    54028   43800      0    1.67e+00    0    1.19e+00
2006 10 20  1215    54028   44100      0    1.68e+00    0    1.18e+00
2006 10 20  1220    54028   44400      0    1.68e+00    0    1.19e+00
2006 10 20  1225    54028   44700      0    1.67e+00    0    1.18e+00
2006 10 20  1230    54028   45000      0    1.71e+00    0    1.19e+00
2006 10 20  1235    54028   45300      0    1.70e+00    0    1.17e+00
2006 10 20  1240    54028   45600      0    1.68e+00    0    1.17e+00
2006 10 20  1245    54028   45900      0    1.66e+00    0    1.16e+00
2006 10 20  1250    54028   46200      0    1.70e+00    0    1.19e+00
2006 10 20  1255    54028   46500      0    1.67e+00    0    1.17e+00
2006 10 20  1300    54028   46800      0    1.71e+00    0    1.21e+00
2006 10 20  1305    54028   47100      0    1.69e+00    0    1.18e+00
2006 10 20  1310    54028   47400      0    1.67e+00    0    1.16e+00
2006 10 20  1315    54028   47700      0    1.70e+00    0    1.18e+00
2006 10 20  1320    54028   48000      0    1.64e+00    0    1.16e+00
2006 10 20  1325    54028   48300      0    1.70e+00    0    1.19e+00
2006 10 20  1330    54028   48600      0    1.67e+00    0    1.17e+00
2006 10 20  1335    54028   48900      0    1.68e+00    0    1.17e+00
2006 10 20  1340    54028   49200      0    1.66e+00    0    1.17e+00
2006 10 20  1345    54028   49500      0    1.68e+00    0    1.18e+00
2006 10 20  1350    54028   49800      0    1.65e+00    0    1.16e+00
2006 10 20  1355    54028   50100      0    1.69e+00    0    1.18e+00
2006 10 20  1400    54028   50400      0    1.67e+00    0    1.16e+00
2006 10 20  1405    54028   50700      0    1.71e+00    0    1.18e+00
2006 10 20  1410    54028   51000      0    1.66e+00    0    1.16e+00
2006 10 20  1415    54028   51300      0    1.68e+00    0    1.17e+00
2006 10 20  1420    54028   51600      0    1.71e+00    0    1.20e+00
2006 10 20  1425    54028   51900      0    1.66e+00    0    1.15e+00
2006 10 20  1430    54028   52200      0    1.68e+00    0    1.17e+00
2006 10 20  1435    54028   52500      0    1.69e+00    0    1.19e+00
2006 10 20  1440    54028   52800      0    1.71e+00    0    1.18e+00
2006 10 20  1445    54028   53100      0    1.69e+00    0    1.19e+00
2006 10 20  1450    54028   53400      0    1.70e+00    0    1.20e+00
2006 10 20  1455    54028   53700      0    1.70e+00    0    1.19e+00
2006 10 20  1500    54028   54000      0    1.65e+00    0    1.15e+00
2006 10 20  1505    54028   54300      0    1.67e+00    0    1.17e+00
2006 10 20  1510    54028   54600      0    1.70e+00    0    1.18e+00
2006 10 20  1515    54028   54900      0    1.68e+00    0    1.17e+00
2006 10 20  1520    54028   55200      0    1.67e+00    0    1.17e+00
2006 10 20  1525    54028   55500      0    1.67e+00    0    1.17e+00
2006 10 20  1530    54028   55800      0    1.70e+00    0    1.19e+00
2006 10 20  1535    54028   56100      0    1.69e+00    0    1.19e+00
2006 10 20  1540    54028   56400      0    1.66e+00    0    1.17e+00
2006 10 20  1545    54028   56700      0    1.67e+00    0    1.16e+00
2006 10 20  1550    54028   57000      0    1.67e+00    0    1.18e+00
2006 10 20  1555    54028   57300      0    1.71e+00    0    1.19e+00
2006 10 20  1600    54028   57600      0    1.71e+00    0    1.19e+00
2006 10 20  1605    54028   57900      0    1.70e+00    0    1.20e+00
2006 10 20  1610    54028   58200      0    1.70e+00    0    1.18e+00
2006 10 20  1615    54028   58500      0    1.70e+00    0    1.19e+00
2006 10 20  1620    54028   58800      0    1.68e+00    0    1.18e+00
2006 10 20  1625    54028   59100      0    1.69e+00    0    1.17e+00
2006 10 20  1630    54028   59400      0    1.69e+00    0    1.20e+00
2006 10 20  1635    54028   59700      0    1.66e+00    0    1.17e+00
2006 10 20  1640    54028   60000      9   -1.00e+05    9   -1.00e+05
2006 10 20  1645    54028   60300      9   -1.00e+05    9   -1.00e+05
2006 10 20  1650    54028   60600      9   -1.00e+05    9   -1.00e+05
2006 10 20  1655    54028   60900      9   -1.00e+05    9   -1.00e+05
2006 10 20  1700    54028   61200      9   -1.00e+05    9   -1.00e+05
2006 10 20  1705    54028   61500      9   -1.00e+05    9   -1.00e+05
2006 10 20  1710    54028   61800      9   -1.00e+05    9   -1.00e+05
2006 10 20  1715    54028   62100      9   -1.00e+05    9   -1.00e+05
2006 10 20  1720    54028   62400      9   -1.00e+05    9   -1.00e+05
2006 10 20  1725    54028   62700      9   -1.00e+05    9   -1.00e+05
2006 10 20  1730    54028   63000      9   -1.00e+05    9   -1.00e+05
2006 10 20  1735    54028   63300      9   -1.00e+05    9   -1.00e+05
2006 10 20  1740    54028   63600      0    1.67e+00    0    1.15e+00
2006 10 20  1745    54028   63900      0    1.70e+00    0    1.19e+00
2006 10 20  1750    54028   64200      0    1.73e+00    0    1.22e+00
2006 10 20  1755    54028   64500      0    1.69e+00    0    1.19e+00
2006 10 20  1800    54028   64800      0    1.68e+00    0    1.18e+00
2006 10 20  1805    54028   65100      0    1.65e+00    0    1.16e+00
2006 10 20  1810    54028   65400      0    1.71e+00    0    1.20e+00
2006 10 20  1815    54028   65700      0    1.68e+00    0    1.17e+00
2006 10 20  1820    54028   66000      0    1.68e+00    0    1.17e+00
2006 10 20  1825    54028   66300      0    1.69e+00    0    1.19e+00
2006 10 20  1830    54028   66600      0    1.69e+00    0    1.18e+00
2006 10 20  1835    54028   66900      0    1.66e+00    0    1.16e+00
2006 10 20  1840    54028   67200      0    1.69e+00    0    1.18e+00
2006 10 20  1845    54028   67500      0    1.71e+00    0    1.21e+00
2006 10 20  1850    54028   67800      0    1.68e+00    0    1.18e+00
2006 10 20  1855    54028   68100      0    1.66e+00    0    1.18e+00
2006 10 20  1900    54028   68400      0    1.70e+00    0    1.20e+00
2006 10 20  1905    54028   68700      0    1.67e+00    0    1.18e+00
2006 10 20  1910    54028   69000      0    1.68e+00    0    1.19e+00
2006 10 20  1915    54028   69300      0    1.68e+00    0    1.17e+00
2006 10 20  1920    54028   69600      0    1.59e+00    0    1.11e+00
2006 10 20  1925    54028   69900      0    1.65e+00    0    1.16e+00
2006 10 20  1930    54028   70200      0    1.67e+00    0    1.17e+00
2006 10 20  1935    54028   70500      0    1.63e+00    0    1.15e+00
2006 10 20  1940    54028   70800      0    1.64e+00    0    1.14e+00
2006 10 20  1945    54028   71100      0    1.64e+00    0    1.15e+00
2006 10 20  1950    54028   71400      0    1.67e+00    0    1.18e+00
2006 10 20  1955    54028   71700      0    1.67e+00    0    1.19e+00
2006 10 20  2000    54028   72000      0    1.64e+00    0    1.15e+00
2006 10 20  2005    54028   72300      0    1.66e+00    0    1.17e+00
2006 10 20  2010    54028   72600      0    1.68e+00    0    1.17e+00
2006 10 20  2015    54028   72900      0    1.66e+00    0    1.17e+00
2006 10 20  2020    54028   73200      0    1.68e+00    0    1.16e+00
2006 10 20  2025    54028   73500      0    1.64e+00    0    1.15e+00
2006 10 20  2030    54028   73800      0    1.68e+00    0    1.16e+00
2006 10 20  2035    54028   74100      0    1.65e+00    0    1.16e+00
2006 10 20  2040    54028   74400      0    1.68e+00    0    1.18e+00
2006 10 20  2045    54028   74700      0    1.68e+00    0    1.18e+00
2006 10 20  2050    54028   75000      0    1.69e+00    0    1.18e+00
2006 10 20  2055    54028   75300      0    1.67e+00    0    1.18e+00
2006 10 20  2100    54028   75600      0    1.68e+00    0    1.17e+00
2006 10 20  2105    54028   75900      0    1.66e+00    0    1.16e+00
2006 10 20  2110    54028   76200      0    1.69e+00    0    1.19e+00
2006 10 20  2115    54028   76500      9   -1.00e+05    9   -1.00e+05
2006 10 20  2120    54028   76800      9   -1.00e+05    9   -1.00e+05
2006 10 20  2125    54028   77100      9   -1.00e+05    9   -1.00e+05
2006 10 20  2130    54028   77400      9   -1.00e+05    9   -1.00e+05
2006 10 20  2135    54028   77700      9   -1.00e+05    9   -1.00e+05
2006 10 20  2140    54028   78000      9   -1.00e+05    9   -1.00e+05
2006 10 20  2145    54028   78300      9   -1.00e+05    9   -1.00e+05
2006 10 20  2150    54028   78600      9   -1.00e+05    9   -1.00e+05
2006 10 20  2155    54028   78900      9   -1.00e+05    9   -1.00e+05
2006 10 20  2200    54028   79200      9   -1.00e+05    9   -1.00e+05
2006 10 20  2205    54028   79500      9   -1.00e+05    9   -1.00e+05
2006 10 20  2210    54028   79800      0    1.60e+00    0    1.11e+00
2006 10 20  2215    54028   80100      0    1.64e+00    0    1.15e+00
2006 10 20  2220    54028   80400      0    1.68e+00    0    1.18e+00
2006 10 20  2225    54028   80700      0    1.64e+00    0    1.16e+00
2006 10 20  2230    54028   81000      0    1.62e+00    0    1.15e+00
2006 10 20  2235    54028   81300      0    1.66e+00    0    1.17e+00
2006 10 20  2240    54028   81600      0    1.63e+00    0    1.14e+00
2006 10 20  2245    54028   81900      0    1.67e+00    0    1.16e+00
2006 10 20  2250    54028   82200      0    1.68e+00    0    1.17e+00
2006 10 20  2255    54028   82500      0    1.68e+00    0    1.18e+00
2006 10 20  2300    54028   82800      0    1.65e+00    0    1.17e+00
2006 10 20  2305    54028   83100      0    1.65e+00    0    1.16e+00
2006 10 20  2310    54028   83400      0    1.59e+00    0    1.11e+00
2006 10 20  2315    54028   83700      0    1.66e+00    0    1.19e+00
2006 10 20  2320    54028   84000      0    1.66e+00    0    1.17e+00
2006 10 20  2325    54028   84300      0    1.65e+00    0    1.15e+00
2006 10 20  2330    54028   84600      0    1.64e+00    0    1.16e+00
2006 10 20  2335    54028   84900      0    1.66e+00    0    1.17e+00
2006 10 20  2340    54028   85200      0    1.61e+00    0    1.12e+00
2006 10 20  2345    54028   85500      0    1.62e+00    0    1.14e+00
2006 10 20  2350    54028   85800      0    1.64e+00    0    1.15e+00
2006 10 20  2355    54028   86100      0    1.65e+00    0    1.15e+00
