:Data_list: 20060508_ace_sis_5m.txt
:Created: 2006 May 09 0011 UT
# Prepared by the U.S. Dept. of Commerce, NOAA, Space Environment Center.
# Please send comments and suggestions to SEC.Webmaster@noaa.gov 
# 
# Units: proton flux p/cs2-sec-ster
# Status(S): 0 = nominal data, 1 to 8 = bad data record, 9 = no data
# Missing data values: -1.00e+05
# Source: ACE Satellite - Solar Isotope Spectrometer
#
# 5-minute averaged Real-time Integral Flux of High-energy Solar Protons
# 
#                 Modified Seconds
# UT Date   Time   Julian  of the      ---- Integral Proton Flux ----
# YR MO DA  HHMM     Day     Day       S    > 10 MeV    S    > 30 MeV
#--------------------------------------------------------------------
2006 05 08  0000    53863       0      0    1.57e+00    0    1.10e+00
2006 05 08  0005    53863     300      0    1.56e+00    0    1.08e+00
2006 05 08  0010    53863     600      0    1.56e+00    0    1.09e+00
2006 05 08  0015    53863     900      0    1.53e+00    0    1.06e+00
2006 05 08  0020    53863    1200      0    1.58e+00    0    1.12e+00
2006 05 08  0025    53863    1500      0    1.55e+00    0    1.08e+00
2006 05 08  0030    53863    1800      0    1.54e+00    0    1.08e+00
2006 05 08  0035    53863    2100      0    1.59e+00    0    1.12e+00
2006 05 08  0040    53863    2400      0    1.56e+00    0    1.10e+00
2006 05 08  0045    53863    2700      0    1.57e+00    0    1.11e+00
2006 05 08  0050    53863    3000      0    1.54e+00    0    1.07e+00
2006 05 08  0055    53863    3300      0    1.57e+00    0    1.12e+00
2006 05 08  0100    53863    3600      0    1.54e+00    0    1.08e+00
2006 05 08  0105    53863    3900      0    1.56e+00    0    1.09e+00
2006 05 08  0110    53863    4200      0    1.55e+00    0    1.08e+00
2006 05 08  0115    53863    4500      0    1.53e+00    0    1.07e+00
2006 05 08  0120    53863    4800      0    1.54e+00    0    1.07e+00
2006 05 08  0125    53863    5100      0    1.56e+00    0    1.10e+00
2006 05 08  0130    53863    5400      0    1.56e+00    0    1.08e+00
2006 05 08  0135    53863    5700      0    1.56e+00    0    1.09e+00
2006 05 08  0140    53863    6000      0    1.53e+00    0    1.07e+00
2006 05 08  0145    53863    6300      0    1.56e+00    0    1.10e+00
2006 05 08  0150    53863    6600      0    1.57e+00    0    1.10e+00
2006 05 08  0155    53863    6900      0    1.52e+00    0    1.06e+00
2006 05 08  0200    53863    7200      0    1.57e+00    0    1.10e+00
2006 05 08  0205    53863    7500      0    1.58e+00    0    1.12e+00
2006 05 08  0210    53863    7800      0    1.57e+00    0    1.10e+00
2006 05 08  0215    53863    8100      0    1.56e+00    0    1.10e+00
2006 05 08  0220    53863    8400      0    1.55e+00    0    1.09e+00
2006 05 08  0225    53863    8700      0    1.55e+00    0    1.09e+00
2006 05 08  0230    53863    9000      0    1.54e+00    0    1.08e+00
2006 05 08  0235    53863    9300      0    1.56e+00    0    1.09e+00
2006 05 08  0240    53863    9600      0    1.56e+00    0    1.10e+00
2006 05 08  0245    53863    9900      0    1.57e+00    0    1.11e+00
2006 05 08  0250    53863   10200      0    1.59e+00    0    1.11e+00
2006 05 08  0255    53863   10500      0    1.56e+00    0    1.10e+00
2006 05 08  0300    53863   10800      0    1.60e+00    0    1.11e+00
2006 05 08  0305    53863   11100      0    1.57e+00    0    1.11e+00
2006 05 08  0310    53863   11400      0    1.59e+00    0    1.12e+00
2006 05 08  0315    53863   11700      0    1.60e+00    0    1.13e+00
2006 05 08  0320    53863   12000      0    1.58e+00    0    1.11e+00
2006 05 08  0325    53863   12300      0    1.55e+00    0    1.09e+00
2006 05 08  0330    53863   12600      0    1.59e+00    0    1.11e+00
2006 05 08  0335    53863   12900      0    1.56e+00    0    1.09e+00
2006 05 08  0340    53863   13200      0    1.57e+00    0    1.09e+00
2006 05 08  0345    53863   13500      0    1.56e+00    0    1.10e+00
2006 05 08  0350    53863   13800      0    1.54e+00    0    1.07e+00
2006 05 08  0355    53863   14100      0    1.55e+00    0    1.09e+00
2006 05 08  0400    53863   14400      0    1.55e+00    0    1.09e+00
2006 05 08  0405    53863   14700      0    1.57e+00    0    1.12e+00
2006 05 08  0410    53863   15000      0    1.55e+00    0    1.09e+00
2006 05 08  0415    53863   15300      0    1.54e+00    0    1.08e+00
2006 05 08  0420    53863   15600      0    1.58e+00    0    1.11e+00
2006 05 08  0425    53863   15900      0    1.49e+00    0    1.04e+00
2006 05 08  0430    53863   16200      0    1.55e+00    0    1.09e+00
2006 05 08  0435    53863   16500      0    1.58e+00    0    1.11e+00
2006 05 08  0440    53863   16800      0    1.56e+00    0    1.09e+00
2006 05 08  0445    53863   17100      0    1.55e+00    0    1.09e+00
2006 05 08  0450    53863   17400      0    1.60e+00    0    1.12e+00
2006 05 08  0455    53863   17700      0    1.56e+00    0    1.09e+00
2006 05 08  0500    53863   18000      0    1.57e+00    0    1.10e+00
2006 05 08  0505    53863   18300      0    1.54e+00    0    1.07e+00
2006 05 08  0510    53863   18600      0    1.59e+00    0    1.13e+00
2006 05 08  0515    53863   18900      0    1.59e+00    0    1.12e+00
2006 05 08  0520    53863   19200      0    1.60e+00    0    1.12e+00
2006 05 08  0525    53863   19500      0    1.57e+00    0    1.09e+00
2006 05 08  0530    53863   19800      0    1.57e+00    0    1.10e+00
2006 05 08  0535    53863   20100      0    1.61e+00    0    1.14e+00
2006 05 08  0540    53863   20400      0    1.58e+00    0    1.11e+00
2006 05 08  0545    53863   20700      0    1.56e+00    0    1.09e+00
2006 05 08  0550    53863   21000      0    1.55e+00    0    1.08e+00
2006 05 08  0555    53863   21300      0    1.58e+00    0    1.11e+00
2006 05 08  0600    53863   21600      0    1.57e+00    0    1.10e+00
2006 05 08  0605    53863   21900      0    1.62e+00    0    1.12e+00
2006 05 08  0610    53863   22200      0    1.54e+00    0    1.08e+00
2006 05 08  0615    53863   22500      0    1.57e+00    0    1.10e+00
2006 05 08  0620    53863   22800      0    1.59e+00    0    1.11e+00
2006 05 08  0625    53863   23100      0    1.59e+00    0    1.12e+00
2006 05 08  0630    53863   23400      0    1.58e+00    0    1.11e+00
2006 05 08  0635    53863   23700      0    1.56e+00    0    1.09e+00
2006 05 08  0640    53863   24000      0    1.57e+00    0    1.10e+00
2006 05 08  0645    53863   24300      0    1.54e+00    0    1.09e+00
2006 05 08  0650    53863   24600      0    1.57e+00    0    1.10e+00
2006 05 08  0655    53863   24900      0    1.57e+00    0    1.11e+00
2006 05 08  0700    53863   25200      0    1.60e+00    0    1.12e+00
2006 05 08  0705    53863   25500      0    1.58e+00    0    1.11e+00
2006 05 08  0710    53863   25800      0    1.56e+00    0    1.09e+00
2006 05 08  0715    53863   26100      0    1.57e+00    0    1.09e+00
2006 05 08  0720    53863   26400      0    1.54e+00    0    1.08e+00
2006 05 08  0725    53863   26700      0    1.60e+00    0    1.11e+00
2006 05 08  0730    53863   27000      0    1.53e+00    0    1.07e+00
2006 05 08  0735    53863   27300      0    1.57e+00    0    1.11e+00
2006 05 08  0740    53863   27600      0    1.54e+00    0    1.08e+00
2006 05 08  0745    53863   27900      0    1.56e+00    0    1.09e+00
2006 05 08  0750    53863   28200      0    1.59e+00    0    1.11e+00
2006 05 08  0755    53863   28500      0    1.59e+00    0    1.11e+00
2006 05 08  0800    53863   28800      0    1.56e+00    0    1.10e+00
2006 05 08  0805    53863   29100      0    1.58e+00    0    1.11e+00
2006 05 08  0810    53863   29400      0    1.59e+00    0    1.11e+00
2006 05 08  0815    53863   29700      0    1.56e+00    0    1.10e+00
2006 05 08  0820    53863   30000      0    1.55e+00    0    1.08e+00
2006 05 08  0825    53863   30300      0    1.59e+00    0    1.11e+00
2006 05 08  0830    53863   30600      0    1.58e+00    0    1.11e+00
2006 05 08  0835    53863   30900      0    1.60e+00    0    1.12e+00
2006 05 08  0840    53863   31200      0    1.58e+00    0    1.12e+00
2006 05 08  0845    53863   31500      0    1.60e+00    0    1.14e+00
2006 05 08  0850    53863   31800      0    1.57e+00    0    1.10e+00
2006 05 08  0855    53863   32100      0    1.55e+00    0    1.08e+00
2006 05 08  0900    53863   32400      0    1.55e+00    0    1.08e+00
2006 05 08  0905    53863   32700      0    1.60e+00    0    1.13e+00
2006 05 08  0910    53863   33000      0    1.56e+00    0    1.08e+00
2006 05 08  0915    53863   33300      0    1.56e+00    0    1.09e+00
2006 05 08  0920    53863   33600      0    1.56e+00    0    1.11e+00
2006 05 08  0925    53863   33900      0    1.59e+00    0    1.11e+00
2006 05 08  0930    53863   34200      0    1.54e+00    0    1.07e+00
2006 05 08  0935    53863   34500      0    1.59e+00    0    1.11e+00
2006 05 08  0940    53863   34800      0    1.56e+00    0    1.09e+00
2006 05 08  0945    53863   35100      0    1.60e+00    0    1.12e+00
2006 05 08  0950    53863   35400      0    1.56e+00    0    1.09e+00
2006 05 08  0955    53863   35700      0    1.54e+00    0    1.09e+00
2006 05 08  1000    53863   36000      0    1.54e+00    0    1.09e+00
2006 05 08  1005    53863   36300      0    1.58e+00    0    1.11e+00
2006 05 08  1010    53863   36600      0    1.57e+00    0    1.11e+00
2006 05 08  1015    53863   36900      0    1.56e+00    0    1.09e+00
2006 05 08  1020    53863   37200      0    1.57e+00    0    1.11e+00
2006 05 08  1025    53863   37500      0    1.55e+00    0    1.08e+00
2006 05 08  1030    53863   37800      0    1.56e+00    0    1.08e+00
2006 05 08  1035    53863   38100      0    1.59e+00    0    1.12e+00
2006 05 08  1040    53863   38400      0    1.58e+00    0    1.10e+00
2006 05 08  1045    53863   38700      0    1.56e+00    0    1.10e+00
2006 05 08  1050    53863   39000      0    1.59e+00    0    1.11e+00
2006 05 08  1055    53863   39300      0    1.59e+00    0    1.12e+00
2006 05 08  1100    53863   39600      0    1.58e+00    0    1.11e+00
2006 05 08  1105    53863   39900      0    1.54e+00    0    1.09e+00
2006 05 08  1110    53863   40200      0    1.54e+00    0    1.09e+00
2006 05 08  1115    53863   40500      0    1.55e+00    0    1.08e+00
2006 05 08  1120    53863   40800      0    1.56e+00    0    1.09e+00
2006 05 08  1125    53863   41100      0    1.58e+00    0    1.11e+00
2006 05 08  1130    53863   41400      0    1.57e+00    0    1.10e+00
2006 05 08  1135    53863   41700      0    1.60e+00    0    1.11e+00
2006 05 08  1140    53863   42000      0    1.60e+00    0    1.13e+00
2006 05 08  1145    53863   42300      0    1.56e+00    0    1.09e+00
2006 05 08  1150    53863   42600      0    1.60e+00    0    1.12e+00
2006 05 08  1155    53863   42900      0    1.55e+00    0    1.09e+00
2006 05 08  1200    53863   43200      0    1.56e+00    0    1.09e+00
2006 05 08  1205    53863   43500      0    1.59e+00    0    1.12e+00
2006 05 08  1210    53863   43800      0    1.57e+00    0    1.12e+00
2006 05 08  1215    53863   44100      0    1.54e+00    0    1.08e+00
2006 05 08  1220    53863   44400      0    1.56e+00    0    1.09e+00
2006 05 08  1225    53863   44700      0    1.58e+00    0    1.10e+00
2006 05 08  1230    53863   45000      0    1.59e+00    0    1.12e+00
2006 05 08  1235    53863   45300      0    1.53e+00    0    1.08e+00
2006 05 08  1240    53863   45600      0    1.57e+00    0    1.10e+00
2006 05 08  1245    53863   45900      0    1.57e+00    0    1.10e+00
2006 05 08  1250    53863   46200      0    1.56e+00    0    1.10e+00
2006 05 08  1255    53863   46500      0    1.56e+00    0    1.09e+00
2006 05 08  1300    53863   46800      0    1.58e+00    0    1.11e+00
2006 05 08  1305    53863   47100      0    1.57e+00    0    1.10e+00
2006 05 08  1310    53863   47400      0    1.57e+00    0    1.10e+00
2006 05 08  1315    53863   47700      0    1.55e+00    0    1.10e+00
2006 05 08  1320    53863   48000      0    1.54e+00    0    1.08e+00
2006 05 08  1325    53863   48300      0    1.53e+00    0    1.07e+00
2006 05 08  1330    53863   48600      0    1.52e+00    0    1.06e+00
2006 05 08  1335    53863   48900      0    1.61e+00    0    1.12e+00
2006 05 08  1340    53863   49200      0    1.57e+00    0    1.10e+00
2006 05 08  1345    53863   49500      0    1.52e+00    0    1.06e+00
2006 05 08  1350    53863   49800      0    1.56e+00    0    1.10e+00
2006 05 08  1355    53863   50100      0    1.56e+00    0    1.10e+00
2006 05 08  1400    53863   50400      0    1.55e+00    0    1.09e+00
2006 05 08  1405    53863   50700      0    1.56e+00    0    1.08e+00
2006 05 08  1410    53863   51000      0    1.58e+00    0    1.11e+00
2006 05 08  1415    53863   51300      0    1.54e+00    0    1.07e+00
2006 05 08  1420    53863   51600      0    1.58e+00    0    1.12e+00
2006 05 08  1425    53863   51900      0    1.57e+00    0    1.10e+00
2006 05 08  1430    53863   52200      0    1.55e+00    0    1.09e+00
2006 05 08  1435    53863   52500      0    1.58e+00    0    1.10e+00
2006 05 08  1440    53863   52800      0    1.57e+00    0    1.10e+00
2006 05 08  1445    53863   53100      0    1.57e+00    0    1.09e+00
2006 05 08  1450    53863   53400      0    1.54e+00    0    1.08e+00
2006 05 08  1455    53863   53700      0    1.58e+00    0    1.11e+00
2006 05 08  1500    53863   54000      0    1.56e+00    0    1.11e+00
2006 05 08  1505    53863   54300      0    1.54e+00    0    1.08e+00
2006 05 08  1510    53863   54600      0    1.56e+00    0    1.10e+00
2006 05 08  1515    53863   54900      0    1.55e+00    0    1.08e+00
2006 05 08  1520    53863   55200      0    1.54e+00    0    1.08e+00
2006 05 08  1525    53863   55500      0    1.56e+00    0    1.09e+00
2006 05 08  1530    53863   55800      0    1.55e+00    0    1.09e+00
2006 05 08  1535    53863   56100      0    1.56e+00    0    1.11e+00
2006 05 08  1540    53863   56400      0    1.57e+00    0    1.09e+00
2006 05 08  1545    53863   56700      0    1.59e+00    0    1.11e+00
2006 05 08  1550    53863   57000      0    1.59e+00    0    1.11e+00
2006 05 08  1555    53863   57300      0    1.55e+00    0    1.09e+00
2006 05 08  1600    53863   57600      0    1.58e+00    0    1.11e+00
2006 05 08  1605    53863   57900      0    1.53e+00    0    1.07e+00
2006 05 08  1610    53863   58200      0    1.56e+00    0    1.09e+00
2006 05 08  1615    53863   58500      0    1.55e+00    0    1.09e+00
2006 05 08  1620    53863   58800      0    1.55e+00    0    1.08e+00
2006 05 08  1625    53863   59100      0    1.58e+00    0    1.11e+00
2006 05 08  1630    53863   59400      0    1.55e+00    0    1.09e+00
2006 05 08  1635    53863   59700      0    1.58e+00    0    1.11e+00
2006 05 08  1640    53863   60000      0    1.59e+00    0    1.12e+00
2006 05 08  1645    53863   60300      0    1.54e+00    0    1.09e+00
2006 05 08  1650    53863   60600      0    1.58e+00    0    1.11e+00
2006 05 08  1655    53863   60900      0    1.56e+00    0    1.09e+00
2006 05 08  1700    53863   61200      0    1.59e+00    0    1.12e+00
2006 05 08  1705    53863   61500      0    1.55e+00    0    1.09e+00
2006 05 08  1710    53863   61800      0    1.58e+00    0    1.10e+00
2006 05 08  1715    53863   62100      0    1.54e+00    0    1.08e+00
2006 05 08  1720    53863   62400      0    1.52e+00    0    1.07e+00
2006 05 08  1725    53863   62700      0    1.60e+00    0    1.12e+00
2006 05 08  1730    53863   63000      0    1.57e+00    0    1.11e+00
2006 05 08  1735    53863   63300      0    1.57e+00    0    1.10e+00
2006 05 08  1740    53863   63600      0    1.55e+00    0    1.08e+00
2006 05 08  1745    53863   63900      0    1.58e+00    0    1.10e+00
2006 05 08  1750    53863   64200      0    1.55e+00    0    1.08e+00
2006 05 08  1755    53863   64500      0    1.57e+00    0    1.10e+00
2006 05 08  1800    53863   64800      0    1.57e+00    0    1.11e+00
2006 05 08  1805    53863   65100      0    1.57e+00    0    1.11e+00
2006 05 08  1810    53863   65400      0    1.56e+00    0    1.08e+00
2006 05 08  1815    53863   65700      0    1.53e+00    0    1.07e+00
2006 05 08  1820    53863   66000      0    1.58e+00    0    1.11e+00
2006 05 08  1825    53863   66300      0    1.57e+00    0    1.10e+00
2006 05 08  1830    53863   66600      0    1.57e+00    0    1.10e+00
2006 05 08  1835    53863   66900      0    1.60e+00    0    1.12e+00
2006 05 08  1840    53863   67200      0    1.56e+00    0    1.09e+00
2006 05 08  1845    53863   67500      0    1.60e+00    0    1.12e+00
2006 05 08  1850    53863   67800      0    1.55e+00    0    1.08e+00
2006 05 08  1855    53863   68100      0    1.55e+00    0    1.09e+00
2006 05 08  1900    53863   68400      0    1.58e+00    0    1.11e+00
2006 05 08  1905    53863   68700      0    1.56e+00    0    1.10e+00
2006 05 08  1910    53863   69000      0    1.58e+00    0    1.11e+00
2006 05 08  1915    53863   69300      0    1.56e+00    0    1.09e+00
2006 05 08  1920    53863   69600      0    1.57e+00    0    1.11e+00
2006 05 08  1925    53863   69900      0    1.60e+00    0    1.13e+00
2006 05 08  1930    53863   70200      0    1.56e+00    0    1.10e+00
2006 05 08  1935    53863   70500      0    1.56e+00    0    1.09e+00
2006 05 08  1940    53863   70800      0    1.56e+00    0    1.09e+00
2006 05 08  1945    53863   71100      0    1.61e+00    0    1.12e+00
2006 05 08  1950    53863   71400      0    1.57e+00    0    1.10e+00
2006 05 08  1955    53863   71700      0    1.57e+00    0    1.10e+00
2006 05 08  2000    53863   72000      0    1.59e+00    0    1.11e+00
2006 05 08  2005    53863   72300      0    1.59e+00    0    1.12e+00
2006 05 08  2010    53863   72600      0    1.57e+00    0    1.10e+00
2006 05 08  2015    53863   72900      0    1.56e+00    0    1.09e+00
2006 05 08  2020    53863   73200      0    1.56e+00    0    1.10e+00
2006 05 08  2025    53863   73500      0    1.63e+00    0    1.16e+00
2006 05 08  2030    53863   73800      0    1.58e+00    0    1.11e+00
2006 05 08  2035    53863   74100      0    1.55e+00    0    1.09e+00
2006 05 08  2040    53863   74400      0    1.56e+00    0    1.09e+00
2006 05 08  2045    53863   74700      0    1.57e+00    0    1.10e+00
2006 05 08  2050    53863   75000      0    1.59e+00    0    1.12e+00
2006 05 08  2055    53863   75300      0    1.56e+00    0    1.09e+00
2006 05 08  2100    53863   75600      0    1.57e+00    0    1.10e+00
2006 05 08  2105    53863   75900      0    1.55e+00    0    1.08e+00
2006 05 08  2110    53863   76200      0    1.60e+00    0    1.13e+00
2006 05 08  2115    53863   76500      0    1.55e+00    0    1.09e+00
2006 05 08  2120    53863   76800      0    1.58e+00    0    1.10e+00
2006 05 08  2125    53863   77100      0    1.62e+00    0    1.14e+00
2006 05 08  2130    53863   77400      0    1.54e+00    0    1.08e+00
2006 05 08  2135    53863   77700      0    1.56e+00    0    1.10e+00
2006 05 08  2140    53863   78000      0    1.59e+00    0    1.11e+00
2006 05 08  2145    53863   78300      0    1.60e+00    0    1.13e+00
2006 05 08  2150    53863   78600      0    1.59e+00    0    1.11e+00
2006 05 08  2155    53863   78900      0    1.54e+00    0    1.07e+00
2006 05 08  2200    53863   79200      0    1.61e+00    0    1.14e+00
2006 05 08  2205    53863   79500      0    1.60e+00    0    1.13e+00
2006 05 08  2210    53863   79800      0    1.56e+00    0    1.10e+00
2006 05 08  2215    53863   80100      0    1.58e+00    0    1.11e+00
2006 05 08  2220    53863   80400      0    1.58e+00    0    1.11e+00
2006 05 08  2225    53863   80700      0    1.54e+00    0    1.08e+00
2006 05 08  2230    53863   81000      0    1.57e+00    0    1.11e+00
2006 05 08  2235    53863   81300      0    1.54e+00    0    1.08e+00
2006 05 08  2240    53863   81600      0    1.57e+00    0    1.10e+00
2006 05 08  2245    53863   81900      0    1.59e+00    0    1.12e+00
2006 05 08  2250    53863   82200      0    1.59e+00    0    1.11e+00
2006 05 08  2255    53863   82500      0    1.60e+00    0    1.13e+00
2006 05 08  2300    53863   82800      0    1.54e+00    0    1.07e+00
2006 05 08  2305    53863   83100      0    1.57e+00    0    1.10e+00
2006 05 08  2310    53863   83400      0    1.58e+00    0    1.10e+00
2006 05 08  2315    53863   83700      0    1.55e+00    0    1.08e+00
2006 05 08  2320    53863   84000      0    1.58e+00    0    1.11e+00
2006 05 08  2325    53863   84300      0    1.59e+00    0    1.12e+00
2006 05 08  2330    53863   84600      0    1.59e+00    0    1.11e+00
2006 05 08  2335    53863   84900      0    1.57e+00    0    1.10e+00
2006 05 08  2340    53863   85200      0    1.56e+00    0    1.10e+00
2006 05 08  2345    53863   85500      0    1.57e+00    0    1.10e+00
2006 05 08  2350    53863   85800      0    1.57e+00    0    1.10e+00
2006 05 08  2355    53863   86100      0    1.58e+00    0    1.12e+00
