:Data_list: 20060927_ace_sis_5m.txt
:Created: 2006 Sep 28 0011 UT
# Prepared by the U.S. Dept. of Commerce, NOAA, Space Environment Center.
# Please send comments and suggestions to SEC.Webmaster@noaa.gov 
# 
# Units: proton flux p/cs2-sec-ster
# Status(S): 0 = nominal data, 1 to 8 = bad data record, 9 = no data
# Missing data values: -1.00e+05
# Source: ACE Satellite - Solar Isotope Spectrometer
#
# 5-minute averaged Real-time Integral Flux of High-energy Solar Protons
# 
#                 Modified Seconds
# UT Date   Time   Julian  of the      ---- Integral Proton Flux ----
# YR MO DA  HHMM     Day     Day       S    > 10 MeV    S    > 30 MeV
#--------------------------------------------------------------------
2006 09 27  0000    54005       0      0    1.65e+00    0    1.16e+00
2006 09 27  0005    54005     300      0    1.65e+00    0    1.17e+00
2006 09 27  0010    54005     600      0    1.63e+00    0    1.15e+00
2006 09 27  0015    54005     900      0    1.64e+00    0    1.16e+00
2006 09 27  0020    54005    1200      0    1.67e+00    0    1.18e+00
2006 09 27  0025    54005    1500      0    1.65e+00    0    1.16e+00
2006 09 27  0030    54005    1800      0    1.64e+00    0    1.15e+00
2006 09 27  0035    54005    2100      0    1.66e+00    0    1.15e+00
2006 09 27  0040    54005    2400      0    1.62e+00    0    1.15e+00
2006 09 27  0045    54005    2700      0    1.68e+00    0    1.18e+00
2006 09 27  0050    54005    3000      0    1.65e+00    0    1.16e+00
2006 09 27  0055    54005    3300      0    1.67e+00    0    1.16e+00
2006 09 27  0100    54005    3600      0    1.62e+00    0    1.14e+00
2006 09 27  0105    54005    3900      0    1.65e+00    0    1.18e+00
2006 09 27  0110    54005    4200      0    1.61e+00    0    1.13e+00
2006 09 27  0115    54005    4500      0    1.67e+00    0    1.16e+00
2006 09 27  0120    54005    4800      0    1.64e+00    0    1.14e+00
2006 09 27  0125    54005    5100      0    1.61e+00    0    1.12e+00
2006 09 27  0130    54005    5400      0    1.64e+00    0    1.13e+00
2006 09 27  0135    54005    5700      0    1.63e+00    0    1.16e+00
2006 09 27  0140    54005    6000      0    1.65e+00    0    1.16e+00
2006 09 27  0145    54005    6300      0    1.59e+00    0    1.12e+00
2006 09 27  0150    54005    6600      0    1.62e+00    0    1.14e+00
2006 09 27  0155    54005    6900      0    1.65e+00    0    1.16e+00
2006 09 27  0200    54005    7200      0    1.66e+00    0    1.17e+00
2006 09 27  0205    54005    7500      0    1.66e+00    0    1.17e+00
2006 09 27  0210    54005    7800      0    1.64e+00    0    1.15e+00
2006 09 27  0215    54005    8100      0    1.63e+00    0    1.15e+00
2006 09 27  0220    54005    8400      0    1.65e+00    0    1.15e+00
2006 09 27  0225    54005    8700      0    1.65e+00    0    1.17e+00
2006 09 27  0230    54005    9000      0    1.61e+00    0    1.13e+00
2006 09 27  0235    54005    9300      0    1.63e+00    0    1.13e+00
2006 09 27  0240    54005    9600      0    1.65e+00    0    1.16e+00
2006 09 27  0245    54005    9900      0    1.68e+00    0    1.18e+00
2006 09 27  0250    54005   10200      0    1.63e+00    0    1.15e+00
2006 09 27  0255    54005   10500      0    1.66e+00    0    1.16e+00
2006 09 27  0300    54005   10800      0    1.61e+00    0    1.12e+00
2006 09 27  0305    54005   11100      0    1.62e+00    0    1.14e+00
2006 09 27  0310    54005   11400      0    1.63e+00    0    1.16e+00
2006 09 27  0315    54005   11700      0    1.69e+00    0    1.19e+00
2006 09 27  0320    54005   12000      0    1.67e+00    0    1.18e+00
2006 09 27  0325    54005   12300      0    1.64e+00    0    1.15e+00
2006 09 27  0330    54005   12600      0    1.64e+00    0    1.15e+00
2006 09 27  0335    54005   12900      0    1.62e+00    0    1.14e+00
2006 09 27  0340    54005   13200      0    1.62e+00    0    1.14e+00
2006 09 27  0345    54005   13500      0    1.67e+00    0    1.17e+00
2006 09 27  0350    54005   13800      0    1.63e+00    0    1.14e+00
2006 09 27  0355    54005   14100      0    1.64e+00    0    1.15e+00
2006 09 27  0400    54005   14400      0    1.62e+00    0    1.14e+00
2006 09 27  0405    54005   14700      0    1.65e+00    0    1.17e+00
2006 09 27  0410    54005   15000      0    1.66e+00    0    1.16e+00
2006 09 27  0415    54005   15300      0    1.67e+00    0    1.17e+00
2006 09 27  0420    54005   15600      0    1.62e+00    0    1.14e+00
2006 09 27  0425    54005   15900      0    1.63e+00    0    1.13e+00
2006 09 27  0430    54005   16200      0    1.67e+00    0    1.17e+00
2006 09 27  0435    54005   16500      0    1.63e+00    0    1.13e+00
2006 09 27  0440    54005   16800      0    1.65e+00    0    1.16e+00
2006 09 27  0445    54005   17100      0    1.64e+00    0    1.16e+00
2006 09 27  0450    54005   17400      0    1.67e+00    0    1.17e+00
2006 09 27  0455    54005   17700      0    1.66e+00    0    1.17e+00
2006 09 27  0500    54005   18000      0    1.67e+00    0    1.17e+00
2006 09 27  0505    54005   18300      0    1.60e+00    0    1.12e+00
2006 09 27  0510    54005   18600      0    1.64e+00    0    1.15e+00
2006 09 27  0515    54005   18900      0    1.62e+00    0    1.12e+00
2006 09 27  0520    54005   19200      0    1.64e+00    0    1.14e+00
2006 09 27  0525    54005   19500      0    1.62e+00    0    1.13e+00
2006 09 27  0530    54005   19800      0    1.64e+00    0    1.14e+00
2006 09 27  0535    54005   20100      0    1.61e+00    0    1.12e+00
2006 09 27  0540    54005   20400      0    1.63e+00    0    1.12e+00
2006 09 27  0545    54005   20700      0    1.61e+00    0    1.13e+00
2006 09 27  0550    54005   21000      0    1.64e+00    0    1.15e+00
2006 09 27  0555    54005   21300      0    1.63e+00    0    1.15e+00
2006 09 27  0600    54005   21600      0    1.61e+00    0    1.13e+00
2006 09 27  0605    54005   21900      0    1.65e+00    0    1.16e+00
2006 09 27  0610    54005   22200      0    1.64e+00    0    1.17e+00
2006 09 27  0615    54005   22500      0    1.73e+00    0    1.22e+00
2006 09 27  0620    54005   22800      0    1.66e+00    0    1.16e+00
2006 09 27  0625    54005   23100      0    1.72e+00    0    1.20e+00
2006 09 27  0630    54005   23400      0    1.68e+00    0    1.19e+00
2006 09 27  0635    54005   23700      0    1.68e+00    0    1.17e+00
2006 09 27  0640    54005   24000      0    1.64e+00    0    1.14e+00
2006 09 27  0645    54005   24300      0    1.66e+00    0    1.17e+00
2006 09 27  0650    54005   24600      0    1.68e+00    0    1.16e+00
2006 09 27  0655    54005   24900      0    1.65e+00    0    1.16e+00
2006 09 27  0700    54005   25200      0    1.63e+00    0    1.14e+00
2006 09 27  0705    54005   25500      0    1.66e+00    0    1.16e+00
2006 09 27  0710    54005   25800      0    1.69e+00    0    1.18e+00
2006 09 27  0715    54005   26100      0    1.71e+00    0    1.19e+00
2006 09 27  0720    54005   26400      0    1.68e+00    0    1.19e+00
2006 09 27  0725    54005   26700      0    1.67e+00    0    1.17e+00
2006 09 27  0730    54005   27000      0    1.68e+00    0    1.18e+00
2006 09 27  0735    54005   27300      0    1.68e+00    0    1.17e+00
2006 09 27  0740    54005   27600      0    1.67e+00    0    1.18e+00
2006 09 27  0745    54005   27900      0    1.67e+00    0    1.17e+00
2006 09 27  0750    54005   28200      0    1.69e+00    0    1.19e+00
2006 09 27  0755    54005   28500      0    1.67e+00    0    1.17e+00
2006 09 27  0800    54005   28800      0    1.70e+00    0    1.20e+00
2006 09 27  0805    54005   29100      0    1.67e+00    0    1.16e+00
2006 09 27  0810    54005   29400      0    1.68e+00    0    1.17e+00
2006 09 27  0815    54005   29700      0    1.64e+00    0    1.15e+00
2006 09 27  0820    54005   30000      0    1.66e+00    0    1.16e+00
2006 09 27  0825    54005   30300      0    1.68e+00    0    1.18e+00
2006 09 27  0830    54005   30600      0    1.67e+00    0    1.18e+00
2006 09 27  0835    54005   30900      0    1.71e+00    0    1.21e+00
2006 09 27  0840    54005   31200      0    1.67e+00    0    1.16e+00
2006 09 27  0845    54005   31500      0    1.67e+00    0    1.17e+00
2006 09 27  0850    54005   31800      0    1.67e+00    0    1.17e+00
2006 09 27  0855    54005   32100      0    1.63e+00    0    1.15e+00
2006 09 27  0900    54005   32400      0    1.65e+00    0    1.15e+00
2006 09 27  0905    54005   32700      0    1.64e+00    0    1.15e+00
2006 09 27  0910    54005   33000      0    1.69e+00    0    1.20e+00
2006 09 27  0915    54005   33300      0    1.67e+00    0    1.17e+00
2006 09 27  0920    54005   33600      0    1.68e+00    0    1.19e+00
2006 09 27  0925    54005   33900      0    1.68e+00    0    1.18e+00
2006 09 27  0930    54005   34200      0    1.69e+00    0    1.19e+00
2006 09 27  0935    54005   34500      0    1.68e+00    0    1.17e+00
2006 09 27  0940    54005   34800      0    1.66e+00    0    1.16e+00
2006 09 27  0945    54005   35100      0    1.63e+00    0    1.14e+00
2006 09 27  0950    54005   35400      0    1.67e+00    0    1.17e+00
2006 09 27  0955    54005   35700      0    1.68e+00    0    1.18e+00
2006 09 27  1000    54005   36000      0    1.67e+00    0    1.18e+00
2006 09 27  1005    54005   36300      0    1.67e+00    0    1.16e+00
2006 09 27  1010    54005   36600      0    1.68e+00    0    1.19e+00
2006 09 27  1015    54005   36900      0    1.67e+00    0    1.17e+00
2006 09 27  1020    54005   37200      0    1.67e+00    0    1.17e+00
2006 09 27  1025    54005   37500      0    1.70e+00    0    1.18e+00
2006 09 27  1030    54005   37800      0    1.63e+00    0    1.15e+00
2006 09 27  1035    54005   38100      0    1.67e+00    0    1.17e+00
2006 09 27  1040    54005   38400      0    1.67e+00    0    1.17e+00
2006 09 27  1045    54005   38700      0    1.69e+00    0    1.18e+00
2006 09 27  1050    54005   39000      0    1.68e+00    0    1.18e+00
2006 09 27  1055    54005   39300      0    1.67e+00    0    1.16e+00
2006 09 27  1100    54005   39600      0    1.68e+00    0    1.19e+00
2006 09 27  1105    54005   39900      0    1.68e+00    0    1.17e+00
2006 09 27  1110    54005   40200      0    1.66e+00    0    1.16e+00
2006 09 27  1115    54005   40500      0    1.65e+00    0    1.16e+00
2006 09 27  1120    54005   40800      0    1.60e+00    0    1.13e+00
2006 09 27  1125    54005   41100      0    1.70e+00    0    1.20e+00
2006 09 27  1130    54005   41400      0    1.66e+00    0    1.17e+00
2006 09 27  1135    54005   41700      0    1.69e+00    0    1.18e+00
2006 09 27  1140    54005   42000      0    1.67e+00    0    1.16e+00
2006 09 27  1145    54005   42300      0    1.72e+00    0    1.22e+00
2006 09 27  1150    54005   42600      0    1.69e+00    0    1.19e+00
2006 09 27  1155    54005   42900      0    1.69e+00    0    1.18e+00
2006 09 27  1200    54005   43200      0    1.71e+00    0    1.19e+00
2006 09 27  1205    54005   43500      0    1.68e+00    0    1.18e+00
2006 09 27  1210    54005   43800      0    1.68e+00    0    1.19e+00
2006 09 27  1215    54005   44100      0    1.70e+00    0    1.20e+00
2006 09 27  1220    54005   44400      0    1.69e+00    0    1.20e+00
2006 09 27  1225    54005   44700      0    1.71e+00    0    1.21e+00
2006 09 27  1230    54005   45000      0    1.67e+00    0    1.17e+00
2006 09 27  1235    54005   45300      0    1.72e+00    0    1.22e+00
2006 09 27  1240    54005   45600      0    1.69e+00    0    1.19e+00
2006 09 27  1245    54005   45900      0    1.68e+00    0    1.18e+00
2006 09 27  1250    54005   46200      0    1.66e+00    0    1.17e+00
2006 09 27  1255    54005   46500      0    1.71e+00    0    1.20e+00
2006 09 27  1300    54005   46800      0    1.67e+00    0    1.17e+00
2006 09 27  1305    54005   47100      0    1.67e+00    0    1.17e+00
2006 09 27  1310    54005   47400      0    1.69e+00    0    1.18e+00
2006 09 27  1315    54005   47700      0    1.70e+00    0    1.21e+00
2006 09 27  1320    54005   48000      0    1.66e+00    0    1.16e+00
2006 09 27  1325    54005   48300      0    1.67e+00    0    1.18e+00
2006 09 27  1330    54005   48600      0    1.67e+00    0    1.17e+00
2006 09 27  1335    54005   48900      0    1.67e+00    0    1.17e+00
2006 09 27  1340    54005   49200      0    1.71e+00    0    1.20e+00
2006 09 27  1345    54005   49500      0    1.70e+00    0    1.20e+00
2006 09 27  1350    54005   49800      0    1.59e+00    0    1.10e+00
2006 09 27  1355    54005   50100      0    1.71e+00    0    1.20e+00
2006 09 27  1400    54005   50400      0    1.66e+00    0    1.15e+00
2006 09 27  1405    54005   50700      0    1.67e+00    0    1.17e+00
2006 09 27  1410    54005   51000      0    1.70e+00    0    1.20e+00
2006 09 27  1415    54005   51300      0    1.70e+00    0    1.19e+00
2006 09 27  1420    54005   51600      0    1.67e+00    0    1.17e+00
2006 09 27  1425    54005   51900      0    1.68e+00    0    1.18e+00
2006 09 27  1430    54005   52200      0    1.68e+00    0    1.17e+00
2006 09 27  1435    54005   52500      0    1.70e+00    0    1.20e+00
2006 09 27  1440    54005   52800      0    1.67e+00    0    1.17e+00
2006 09 27  1445    54005   53100      0    1.67e+00    0    1.16e+00
2006 09 27  1450    54005   53400      0    1.67e+00    0    1.16e+00
2006 09 27  1455    54005   53700      0    1.69e+00    0    1.18e+00
2006 09 27  1500    54005   54000      0    1.69e+00    0    1.18e+00
2006 09 27  1505    54005   54300      0    1.69e+00    0    1.17e+00
2006 09 27  1510    54005   54600      0    1.64e+00    0    1.14e+00
2006 09 27  1515    54005   54900      0    1.72e+00    0    1.21e+00
2006 09 27  1520    54005   55200      0    1.70e+00    0    1.19e+00
2006 09 27  1525    54005   55500      0    1.69e+00    0    1.17e+00
2006 09 27  1530    54005   55800      0    1.66e+00    0    1.18e+00
2006 09 27  1535    54005   56100      0    1.66e+00    0    1.16e+00
2006 09 27  1540    54005   56400      0    1.69e+00    0    1.19e+00
2006 09 27  1545    54005   56700      0    1.67e+00    0    1.17e+00
2006 09 27  1550    54005   57000      0    1.66e+00    0    1.16e+00
2006 09 27  1555    54005   57300      0    1.69e+00    0    1.20e+00
2006 09 27  1600    54005   57600      0    1.67e+00    0    1.17e+00
2006 09 27  1605    54005   57900      0    1.70e+00    0    1.20e+00
2006 09 27  1610    54005   58200      0    1.71e+00    0    1.20e+00
2006 09 27  1615    54005   58500      0    1.66e+00    0    1.16e+00
2006 09 27  1620    54005   58800      0    1.71e+00    0    1.20e+00
2006 09 27  1625    54005   59100      0    1.66e+00    0    1.17e+00
2006 09 27  1630    54005   59400      0    1.67e+00    0    1.18e+00
2006 09 27  1635    54005   59700      0    1.68e+00    0    1.18e+00
2006 09 27  1640    54005   60000      0    1.66e+00    0    1.16e+00
2006 09 27  1645    54005   60300      0    1.69e+00    0    1.18e+00
2006 09 27  1650    54005   60600      0    1.64e+00    0    1.15e+00
2006 09 27  1655    54005   60900      0    1.67e+00    0    1.17e+00
2006 09 27  1700    54005   61200      0    1.68e+00    0    1.18e+00
2006 09 27  1705    54005   61500      0    1.68e+00    0    1.18e+00
2006 09 27  1710    54005   61800      0    1.67e+00    0    1.18e+00
2006 09 27  1715    54005   62100      0    1.69e+00    0    1.19e+00
2006 09 27  1720    54005   62400      0    1.69e+00    0    1.19e+00
2006 09 27  1725    54005   62700      0    1.67e+00    0    1.17e+00
2006 09 27  1730    54005   63000      0    1.68e+00    0    1.17e+00
2006 09 27  1735    54005   63300      0    1.67e+00    0    1.16e+00
2006 09 27  1740    54005   63600      0    1.63e+00    0    1.15e+00
2006 09 27  1745    54005   63900      0    1.69e+00    0    1.18e+00
2006 09 27  1750    54005   64200      0    1.71e+00    0    1.20e+00
2006 09 27  1755    54005   64500      0    1.68e+00    0    1.18e+00
2006 09 27  1800    54005   64800      0    1.71e+00    0    1.20e+00
2006 09 27  1805    54005   65100      0    1.64e+00    0    1.15e+00
2006 09 27  1810    54005   65400      0    1.68e+00    0    1.18e+00
2006 09 27  1815    54005   65700      0    1.72e+00    0    1.20e+00
2006 09 27  1820    54005   66000      0    1.73e+00    0    1.22e+00
2006 09 27  1825    54005   66300      0    1.66e+00    0    1.17e+00
2006 09 27  1830    54005   66600      0    1.66e+00    0    1.15e+00
2006 09 27  1835    54005   66900      0    1.66e+00    0    1.17e+00
2006 09 27  1840    54005   67200      0    1.67e+00    0    1.16e+00
2006 09 27  1845    54005   67500      0    1.69e+00    0    1.18e+00
2006 09 27  1850    54005   67800      0    1.68e+00    0    1.17e+00
2006 09 27  1855    54005   68100      0    1.70e+00    0    1.19e+00
2006 09 27  1900    54005   68400      0    1.66e+00    0    1.16e+00
2006 09 27  1905    54005   68700      0    1.70e+00    0    1.18e+00
2006 09 27  1910    54005   69000      0    1.65e+00    0    1.16e+00
2006 09 27  1915    54005   69300      0    1.68e+00    0    1.18e+00
2006 09 27  1920    54005   69600      0    1.69e+00    0    1.19e+00
2006 09 27  1925    54005   69900      0    1.64e+00    0    1.15e+00
2006 09 27  1930    54005   70200      0    1.69e+00    0    1.19e+00
2006 09 27  1935    54005   70500      0    1.68e+00    0    1.18e+00
2006 09 27  1940    54005   70800      0    1.73e+00    0    1.22e+00
2006 09 27  1945    54005   71100      0    1.67e+00    0    1.17e+00
2006 09 27  1950    54005   71400      0    1.69e+00    0    1.18e+00
2006 09 27  1955    54005   71700      0    1.66e+00    0    1.16e+00
2006 09 27  2000    54005   72000      0    1.69e+00    0    1.18e+00
2006 09 27  2005    54005   72300      0    1.57e+00    0    1.11e+00
2006 09 27  2010    54005   72600      0    1.70e+00    0    1.19e+00
2006 09 27  2015    54005   72900      0    1.70e+00    0    1.20e+00
2006 09 27  2020    54005   73200      0    1.67e+00    0    1.15e+00
2006 09 27  2025    54005   73500      0    1.68e+00    0    1.19e+00
2006 09 27  2030    54005   73800      0    1.68e+00    0    1.20e+00
2006 09 27  2035    54005   74100      0    1.69e+00    0    1.20e+00
2006 09 27  2040    54005   74400      0    1.67e+00    0    1.17e+00
2006 09 27  2045    54005   74700      0    1.68e+00    0    1.17e+00
2006 09 27  2050    54005   75000      0    1.67e+00    0    1.17e+00
2006 09 27  2055    54005   75300      0    1.70e+00    0    1.20e+00
2006 09 27  2100    54005   75600      0    1.69e+00    0    1.18e+00
2006 09 27  2105    54005   75900      0    1.68e+00    0    1.17e+00
2006 09 27  2110    54005   76200      0    1.68e+00    0    1.17e+00
2006 09 27  2115    54005   76500      0    1.70e+00    0    1.19e+00
2006 09 27  2120    54005   76800      0    1.71e+00    0    1.20e+00
2006 09 27  2125    54005   77100      0    1.67e+00    0    1.16e+00
2006 09 27  2130    54005   77400      0    1.69e+00    0    1.19e+00
2006 09 27  2135    54005   77700      0    1.67e+00    0    1.17e+00
2006 09 27  2140    54005   78000      0    1.68e+00    0    1.17e+00
2006 09 27  2145    54005   78300      0    1.68e+00    0    1.18e+00
2006 09 27  2150    54005   78600      0    1.67e+00    0    1.16e+00
2006 09 27  2155    54005   78900      0    1.67e+00    0    1.17e+00
2006 09 27  2200    54005   79200      0    1.65e+00    0    1.14e+00
2006 09 27  2205    54005   79500      0    1.69e+00    0    1.19e+00
2006 09 27  2210    54005   79800      0    1.69e+00    0    1.18e+00
2006 09 27  2215    54005   80100      0    1.68e+00    0    1.18e+00
2006 09 27  2220    54005   80400      0    1.69e+00    0    1.18e+00
2006 09 27  2225    54005   80700      0    1.66e+00    0    1.16e+00
2006 09 27  2230    54005   81000      0    1.65e+00    0    1.16e+00
2006 09 27  2235    54005   81300      0    1.69e+00    0    1.17e+00
2006 09 27  2240    54005   81600      0    1.68e+00    0    1.16e+00
2006 09 27  2245    54005   81900      0    1.63e+00    0    1.15e+00
2006 09 27  2250    54005   82200      0    1.70e+00    0    1.19e+00
2006 09 27  2255    54005   82500      0    1.74e+00    0    1.22e+00
2006 09 27  2300    54005   82800      0    1.63e+00    0    1.14e+00
2006 09 27  2305    54005   83100      0    1.65e+00    0    1.14e+00
2006 09 27  2310    54005   83400      0    1.68e+00    0    1.18e+00
2006 09 27  2315    54005   83700      0    1.70e+00    0    1.19e+00
2006 09 27  2320    54005   84000      0    1.64e+00    0    1.15e+00
2006 09 27  2325    54005   84300      0    1.69e+00    0    1.19e+00
2006 09 27  2330    54005   84600      0    1.72e+00    0    1.20e+00
2006 09 27  2335    54005   84900      0    1.69e+00    0    1.17e+00
2006 09 27  2340    54005   85200      0    1.70e+00    0    1.19e+00
2006 09 27  2345    54005   85500      0    1.66e+00    0    1.17e+00
2006 09 27  2350    54005   85800      0    1.63e+00    0    1.14e+00
2006 09 27  2355    54005   86100      0    1.67e+00    0    1.16e+00
