:Data_list: 20060911_ace_sis_5m.txt
:Created: 2006 Sep 12 0011 UT
# Prepared by the U.S. Dept. of Commerce, NOAA, Space Environment Center.
# Please send comments and suggestions to SEC.Webmaster@noaa.gov 
# 
# Units: proton flux p/cs2-sec-ster
# Status(S): 0 = nominal data, 1 to 8 = bad data record, 9 = no data
# Missing data values: -1.00e+05
# Source: ACE Satellite - Solar Isotope Spectrometer
#
# 5-minute averaged Real-time Integral Flux of High-energy Solar Protons
# 
#                 Modified Seconds
# UT Date   Time   Julian  of the      ---- Integral Proton Flux ----
# YR MO DA  HHMM     Day     Day       S    > 10 MeV    S    > 30 MeV
#--------------------------------------------------------------------
2006 09 11  0000    53989       0      0    1.65e+00    0    1.15e+00
2006 09 11  0005    53989     300      0    1.67e+00    0    1.16e+00
2006 09 11  0010    53989     600      0    1.63e+00    0    1.14e+00
2006 09 11  0015    53989     900      0    1.67e+00    0    1.17e+00
2006 09 11  0020    53989    1200      0    1.64e+00    0    1.14e+00
2006 09 11  0025    53989    1500      0    1.62e+00    0    1.14e+00
2006 09 11  0030    53989    1800      0    1.62e+00    0    1.14e+00
2006 09 11  0035    53989    2100      0    1.66e+00    0    1.15e+00
2006 09 11  0040    53989    2400      0    1.65e+00    0    1.16e+00
2006 09 11  0045    53989    2700      0    1.62e+00    0    1.14e+00
2006 09 11  0050    53989    3000      0    1.65e+00    0    1.15e+00
2006 09 11  0055    53989    3300      0    1.66e+00    0    1.17e+00
2006 09 11  0100    53989    3600      0    1.64e+00    0    1.15e+00
2006 09 11  0105    53989    3900      0    1.64e+00    0    1.16e+00
2006 09 11  0110    53989    4200      0    1.65e+00    0    1.16e+00
2006 09 11  0115    53989    4500      0    1.66e+00    0    1.17e+00
2006 09 11  0120    53989    4800      0    1.63e+00    0    1.14e+00
2006 09 11  0125    53989    5100      0    1.65e+00    0    1.15e+00
2006 09 11  0130    53989    5400      0    1.68e+00    0    1.18e+00
2006 09 11  0135    53989    5700      0    1.62e+00    0    1.14e+00
2006 09 11  0140    53989    6000      0    1.63e+00    0    1.14e+00
2006 09 11  0145    53989    6300      0    1.63e+00    0    1.14e+00
2006 09 11  0150    53989    6600      0    1.67e+00    0    1.17e+00
2006 09 11  0155    53989    6900      0    1.64e+00    0    1.16e+00
2006 09 11  0200    53989    7200      0    1.67e+00    0    1.17e+00
2006 09 11  0205    53989    7500      0    1.61e+00    0    1.13e+00
2006 09 11  0210    53989    7800      0    1.61e+00    0    1.13e+00
2006 09 11  0215    53989    8100      0    1.64e+00    0    1.15e+00
2006 09 11  0220    53989    8400      0    1.66e+00    0    1.17e+00
2006 09 11  0225    53989    8700      0    1.64e+00    0    1.14e+00
2006 09 11  0230    53989    9000      0    1.66e+00    0    1.16e+00
2006 09 11  0235    53989    9300      0    1.66e+00    0    1.16e+00
2006 09 11  0240    53989    9600      0    1.66e+00    0    1.15e+00
2006 09 11  0245    53989    9900      0    1.65e+00    0    1.15e+00
2006 09 11  0250    53989   10200      0    1.64e+00    0    1.16e+00
2006 09 11  0255    53989   10500      0    1.65e+00    0    1.16e+00
2006 09 11  0300    53989   10800      0    1.64e+00    0    1.15e+00
2006 09 11  0305    53989   11100      0    1.66e+00    0    1.16e+00
2006 09 11  0310    53989   11400      0    1.62e+00    0    1.14e+00
2006 09 11  0315    53989   11700      0    1.62e+00    0    1.14e+00
2006 09 11  0320    53989   12000      0    1.65e+00    0    1.16e+00
2006 09 11  0325    53989   12300      0    1.67e+00    0    1.18e+00
2006 09 11  0330    53989   12600      0    1.62e+00    0    1.13e+00
2006 09 11  0335    53989   12900      0    1.64e+00    0    1.14e+00
2006 09 11  0340    53989   13200      0    1.65e+00    0    1.16e+00
2006 09 11  0345    53989   13500      0    1.63e+00    0    1.13e+00
2006 09 11  0350    53989   13800      0    1.64e+00    0    1.16e+00
2006 09 11  0355    53989   14100      0    1.64e+00    0    1.14e+00
2006 09 11  0400    53989   14400      0    1.62e+00    0    1.14e+00
2006 09 11  0405    53989   14700      0    1.64e+00    0    1.16e+00
2006 09 11  0410    53989   15000      0    1.62e+00    0    1.13e+00
2006 09 11  0415    53989   15300      0    1.67e+00    0    1.17e+00
2006 09 11  0420    53989   15600      0    1.65e+00    0    1.17e+00
2006 09 11  0425    53989   15900      0    1.64e+00    0    1.15e+00
2006 09 11  0430    53989   16200      0    1.68e+00    0    1.17e+00
2006 09 11  0435    53989   16500      0    1.62e+00    0    1.13e+00
2006 09 11  0440    53989   16800      0    1.60e+00    0    1.12e+00
2006 09 11  0445    53989   17100      0    1.61e+00    0    1.12e+00
2006 09 11  0450    53989   17400      0    1.60e+00    0    1.10e+00
2006 09 11  0455    53989   17700      0    1.64e+00    0    1.15e+00
2006 09 11  0500    53989   18000      0    1.62e+00    0    1.14e+00
2006 09 11  0505    53989   18300      0    1.60e+00    0    1.12e+00
2006 09 11  0510    53989   18600      0    1.62e+00    0    1.14e+00
2006 09 11  0515    53989   18900      0    1.68e+00    0    1.17e+00
2006 09 11  0520    53989   19200      0    1.65e+00    0    1.17e+00
2006 09 11  0525    53989   19500      0    1.60e+00    0    1.11e+00
2006 09 11  0530    53989   19800      0    1.64e+00    0    1.14e+00
2006 09 11  0535    53989   20100      0    1.64e+00    0    1.15e+00
2006 09 11  0540    53989   20400      0    1.60e+00    0    1.11e+00
2006 09 11  0545    53989   20700      0    1.63e+00    0    1.15e+00
2006 09 11  0550    53989   21000      0    1.63e+00    0    1.14e+00
2006 09 11  0555    53989   21300      0    1.60e+00    0    1.13e+00
2006 09 11  0600    53989   21600      0    1.63e+00    0    1.15e+00
2006 09 11  0605    53989   21900      0    1.62e+00    0    1.13e+00
2006 09 11  0610    53989   22200      0    1.61e+00    0    1.13e+00
2006 09 11  0615    53989   22500      0    1.64e+00    0    1.16e+00
2006 09 11  0620    53989   22800      0    1.65e+00    0    1.17e+00
2006 09 11  0625    53989   23100      0    1.66e+00    0    1.15e+00
2006 09 11  0630    53989   23400      0    1.65e+00    0    1.16e+00
2006 09 11  0635    53989   23700      0    1.66e+00    0    1.16e+00
2006 09 11  0640    53989   24000      0    1.64e+00    0    1.14e+00
2006 09 11  0645    53989   24300      0    1.63e+00    0    1.14e+00
2006 09 11  0650    53989   24600      0    1.62e+00    0    1.13e+00
2006 09 11  0655    53989   24900      0    1.66e+00    0    1.17e+00
2006 09 11  0700    53989   25200      0    1.64e+00    0    1.14e+00
2006 09 11  0705    53989   25500      0    1.64e+00    0    1.15e+00
2006 09 11  0710    53989   25800      0    1.64e+00    0    1.14e+00
2006 09 11  0715    53989   26100      0    1.62e+00    0    1.13e+00
2006 09 11  0720    53989   26400      0    1.63e+00    0    1.14e+00
2006 09 11  0725    53989   26700      0    1.62e+00    0    1.14e+00
2006 09 11  0730    53989   27000      0    1.65e+00    0    1.17e+00
2006 09 11  0735    53989   27300      0    1.67e+00    0    1.17e+00
2006 09 11  0740    53989   27600      0    1.63e+00    0    1.14e+00
2006 09 11  0745    53989   27900      0    1.66e+00    0    1.17e+00
2006 09 11  0750    53989   28200      0    1.64e+00    0    1.14e+00
2006 09 11  0755    53989   28500      0    1.62e+00    0    1.13e+00
2006 09 11  0800    53989   28800      0    1.62e+00    0    1.13e+00
2006 09 11  0805    53989   29100      0    1.60e+00    0    1.12e+00
2006 09 11  0810    53989   29400      0    1.65e+00    0    1.15e+00
2006 09 11  0815    53989   29700      0    1.64e+00    0    1.15e+00
2006 09 11  0820    53989   30000      0    1.65e+00    0    1.15e+00
2006 09 11  0825    53989   30300      0    1.67e+00    0    1.15e+00
2006 09 11  0830    53989   30600      0    1.66e+00    0    1.15e+00
2006 09 11  0835    53989   30900      0    1.64e+00    0    1.15e+00
2006 09 11  0840    53989   31200      0    1.64e+00    0    1.16e+00
2006 09 11  0845    53989   31500      0    1.66e+00    0    1.16e+00
2006 09 11  0850    53989   31800      0    1.69e+00    0    1.17e+00
2006 09 11  0855    53989   32100      0    1.60e+00    0    1.12e+00
2006 09 11  0900    53989   32400      0    1.64e+00    0    1.14e+00
2006 09 11  0905    53989   32700      0    1.71e+00    0    1.20e+00
2006 09 11  0910    53989   33000      0    1.63e+00    0    1.15e+00
2006 09 11  0915    53989   33300      0    1.66e+00    0    1.16e+00
2006 09 11  0920    53989   33600      0    1.70e+00    0    1.19e+00
2006 09 11  0925    53989   33900      0    1.61e+00    0    1.12e+00
2006 09 11  0930    53989   34200      0    1.65e+00    0    1.15e+00
2006 09 11  0935    53989   34500      0    1.66e+00    0    1.17e+00
2006 09 11  0940    53989   34800      0    1.65e+00    0    1.16e+00
2006 09 11  0945    53989   35100      0    1.67e+00    0    1.16e+00
2006 09 11  0950    53989   35400      0    1.67e+00    0    1.17e+00
2006 09 11  0955    53989   35700      0    1.62e+00    0    1.13e+00
2006 09 11  1000    53989   36000      0    1.67e+00    0    1.18e+00
2006 09 11  1005    53989   36300      0    1.65e+00    0    1.16e+00
2006 09 11  1010    53989   36600      0    1.66e+00    0    1.16e+00
2006 09 11  1015    53989   36900      0    1.64e+00    0    1.15e+00
2006 09 11  1020    53989   37200      0    1.67e+00    0    1.16e+00
2006 09 11  1025    53989   37500      0    1.64e+00    0    1.16e+00
2006 09 11  1030    53989   37800      0    1.63e+00    0    1.14e+00
2006 09 11  1035    53989   38100      0    1.65e+00    0    1.14e+00
2006 09 11  1040    53989   38400      0    1.64e+00    0    1.15e+00
2006 09 11  1045    53989   38700      0    1.64e+00    0    1.15e+00
2006 09 11  1050    53989   39000      0    1.64e+00    0    1.16e+00
2006 09 11  1055    53989   39300      0    1.58e+00    0    1.13e+00
2006 09 11  1100    53989   39600      0    1.62e+00    0    1.14e+00
2006 09 11  1105    53989   39900      0    1.70e+00    0    1.19e+00
2006 09 11  1110    53989   40200      0    1.63e+00    0    1.15e+00
2006 09 11  1115    53989   40500      0    1.65e+00    0    1.16e+00
2006 09 11  1120    53989   40800      0    1.62e+00    0    1.14e+00
2006 09 11  1125    53989   41100      0    1.65e+00    0    1.15e+00
2006 09 11  1130    53989   41400      0    1.66e+00    0    1.17e+00
2006 09 11  1135    53989   41700      0    1.65e+00    0    1.15e+00
2006 09 11  1140    53989   42000      0    1.61e+00    0    1.14e+00
2006 09 11  1145    53989   42300      0    1.64e+00    0    1.16e+00
2006 09 11  1150    53989   42600      0    1.66e+00    0    1.17e+00
2006 09 11  1155    53989   42900      0    1.64e+00    0    1.14e+00
2006 09 11  1200    53989   43200      0    1.66e+00    0    1.18e+00
2006 09 11  1205    53989   43500      0    1.64e+00    0    1.15e+00
2006 09 11  1210    53989   43800      0    1.62e+00    0    1.12e+00
2006 09 11  1215    53989   44100      0    1.63e+00    0    1.13e+00
2006 09 11  1220    53989   44400      0    1.64e+00    0    1.15e+00
2006 09 11  1225    53989   44700      0    1.62e+00    0    1.13e+00
2006 09 11  1230    53989   45000      0    1.62e+00    0    1.15e+00
2006 09 11  1235    53989   45300      0    1.66e+00    0    1.16e+00
2006 09 11  1240    53989   45600      0    1.63e+00    0    1.15e+00
2006 09 11  1245    53989   45900      0    1.68e+00    0    1.17e+00
2006 09 11  1250    53989   46200      0    1.68e+00    0    1.18e+00
2006 09 11  1255    53989   46500      0    1.65e+00    0    1.16e+00
2006 09 11  1300    53989   46800      0    1.63e+00    0    1.14e+00
2006 09 11  1305    53989   47100      0    1.65e+00    0    1.15e+00
2006 09 11  1310    53989   47400      0    1.64e+00    0    1.14e+00
2006 09 11  1315    53989   47700      0    1.64e+00    0    1.16e+00
2006 09 11  1320    53989   48000      0    1.64e+00    0    1.15e+00
2006 09 11  1325    53989   48300      0    1.65e+00    0    1.15e+00
2006 09 11  1330    53989   48600      0    1.66e+00    0    1.16e+00
2006 09 11  1335    53989   48900      0    1.67e+00    0    1.17e+00
2006 09 11  1340    53989   49200      0    1.67e+00    0    1.17e+00
2006 09 11  1345    53989   49500      0    1.68e+00    0    1.17e+00
2006 09 11  1350    53989   49800      0    1.64e+00    0    1.14e+00
2006 09 11  1355    53989   50100      0    1.64e+00    0    1.14e+00
2006 09 11  1400    53989   50400      0    1.65e+00    0    1.16e+00
2006 09 11  1405    53989   50700      0    1.66e+00    0    1.16e+00
2006 09 11  1410    53989   51000      0    1.68e+00    0    1.18e+00
2006 09 11  1415    53989   51300      0    1.66e+00    0    1.17e+00
2006 09 11  1420    53989   51600      0    1.66e+00    0    1.16e+00
2006 09 11  1425    53989   51900      0    1.63e+00    0    1.13e+00
2006 09 11  1430    53989   52200      0    1.65e+00    0    1.16e+00
2006 09 11  1435    53989   52500      0    1.63e+00    0    1.15e+00
2006 09 11  1440    53989   52800      0    1.62e+00    0    1.14e+00
2006 09 11  1445    53989   53100      0    1.65e+00    0    1.17e+00
2006 09 11  1450    53989   53400      0    1.66e+00    0    1.17e+00
2006 09 11  1455    53989   53700      0    1.67e+00    0    1.17e+00
2006 09 11  1500    53989   54000      0    1.66e+00    0    1.17e+00
2006 09 11  1505    53989   54300      0    1.63e+00    0    1.14e+00
2006 09 11  1510    53989   54600      0    1.65e+00    0    1.17e+00
2006 09 11  1515    53989   54900      0    1.65e+00    0    1.16e+00
2006 09 11  1520    53989   55200      0    1.66e+00    0    1.16e+00
2006 09 11  1525    53989   55500      0    1.68e+00    0    1.18e+00
2006 09 11  1530    53989   55800      0    1.66e+00    0    1.17e+00
2006 09 11  1535    53989   56100      0    1.60e+00    0    1.13e+00
2006 09 11  1540    53989   56400      0    1.66e+00    0    1.16e+00
2006 09 11  1545    53989   56700      0    1.66e+00    0    1.16e+00
2006 09 11  1550    53989   57000      0    1.63e+00    0    1.15e+00
2006 09 11  1555    53989   57300      0    1.63e+00    0    1.14e+00
2006 09 11  1600    53989   57600      0    1.65e+00    0    1.16e+00
2006 09 11  1605    53989   57900      0    1.65e+00    0    1.15e+00
2006 09 11  1610    53989   58200      0    1.64e+00    0    1.14e+00
2006 09 11  1615    53989   58500      0    1.64e+00    0    1.15e+00
2006 09 11  1620    53989   58800      0    1.66e+00    0    1.18e+00
2006 09 11  1625    53989   59100      0    1.64e+00    0    1.14e+00
2006 09 11  1630    53989   59400      0    1.65e+00    0    1.16e+00
2006 09 11  1635    53989   59700      0    1.67e+00    0    1.18e+00
2006 09 11  1640    53989   60000      0    1.66e+00    0    1.17e+00
2006 09 11  1645    53989   60300      0    1.64e+00    0    1.14e+00
2006 09 11  1650    53989   60600      0    1.63e+00    0    1.14e+00
2006 09 11  1655    53989   60900      0    1.67e+00    0    1.18e+00
2006 09 11  1700    53989   61200      0    1.64e+00    0    1.13e+00
2006 09 11  1705    53989   61500      0    1.62e+00    0    1.14e+00
2006 09 11  1710    53989   61800      0    1.68e+00    0    1.18e+00
2006 09 11  1715    53989   62100      0    1.64e+00    0    1.15e+00
2006 09 11  1720    53989   62400      0    1.62e+00    0    1.14e+00
2006 09 11  1725    53989   62700      0    1.65e+00    0    1.15e+00
2006 09 11  1730    53989   63000      0    1.65e+00    0    1.16e+00
2006 09 11  1735    53989   63300      0    1.68e+00    0    1.19e+00
2006 09 11  1740    53989   63600      0    1.63e+00    0    1.14e+00
2006 09 11  1745    53989   63900      0    1.60e+00    0    1.14e+00
2006 09 11  1750    53989   64200      0    1.62e+00    0    1.13e+00
2006 09 11  1755    53989   64500      0    1.62e+00    0    1.13e+00
2006 09 11  1800    53989   64800      0    1.61e+00    0    1.12e+00
2006 09 11  1805    53989   65100      0    1.62e+00    0    1.13e+00
2006 09 11  1810    53989   65400      0    1.63e+00    0    1.14e+00
2006 09 11  1815    53989   65700      0    1.64e+00    0    1.14e+00
2006 09 11  1820    53989   66000      0    1.65e+00    0    1.17e+00
2006 09 11  1825    53989   66300      0    1.64e+00    0    1.15e+00
2006 09 11  1830    53989   66600      0    1.76e+00    0    1.26e+00
2006 09 11  1835    53989   66900      0    1.63e+00    0    1.13e+00
2006 09 11  1840    53989   67200      0    1.63e+00    0    1.14e+00
2006 09 11  1845    53989   67500      0    1.65e+00    0    1.15e+00
2006 09 11  1850    53989   67800      0    1.63e+00    0    1.16e+00
2006 09 11  1855    53989   68100      0    1.65e+00    0    1.15e+00
2006 09 11  1900    53989   68400      0    1.66e+00    0    1.16e+00
2006 09 11  1905    53989   68700      0    1.67e+00    0    1.16e+00
2006 09 11  1910    53989   69000      0    1.67e+00    0    1.18e+00
2006 09 11  1915    53989   69300      0    1.67e+00    0    1.18e+00
2006 09 11  1920    53989   69600      0    1.67e+00    0    1.16e+00
2006 09 11  1925    53989   69900      0    1.66e+00    0    1.16e+00
2006 09 11  1930    53989   70200      0    1.61e+00    0    1.13e+00
2006 09 11  1935    53989   70500      0    1.65e+00    0    1.16e+00
2006 09 11  1940    53989   70800      0    1.65e+00    0    1.16e+00
2006 09 11  1945    53989   71100      0    1.67e+00    0    1.16e+00
2006 09 11  1950    53989   71400      0    1.69e+00    0    1.18e+00
2006 09 11  1955    53989   71700      0    1.63e+00    0    1.14e+00
2006 09 11  2000    53989   72000      0    1.65e+00    0    1.15e+00
2006 09 11  2005    53989   72300      0    1.61e+00    0    1.13e+00
2006 09 11  2010    53989   72600      0    1.66e+00    0    1.17e+00
2006 09 11  2015    53989   72900      0    1.64e+00    0    1.14e+00
2006 09 11  2020    53989   73200      0    1.68e+00    0    1.17e+00
2006 09 11  2025    53989   73500      0    1.63e+00    0    1.14e+00
2006 09 11  2030    53989   73800      0    1.64e+00    0    1.16e+00
2006 09 11  2035    53989   74100      0    1.66e+00    0    1.17e+00
2006 09 11  2040    53989   74400      0    1.67e+00    0    1.17e+00
2006 09 11  2045    53989   74700      0    1.67e+00    0    1.16e+00
2006 09 11  2050    53989   75000      0    1.62e+00    0    1.13e+00
2006 09 11  2055    53989   75300      0    1.62e+00    0    1.14e+00
2006 09 11  2100    53989   75600      0    1.64e+00    0    1.14e+00
2006 09 11  2105    53989   75900      0    1.67e+00    0    1.18e+00
2006 09 11  2110    53989   76200      0    1.66e+00    0    1.16e+00
2006 09 11  2115    53989   76500      0    1.67e+00    0    1.17e+00
2006 09 11  2120    53989   76800      0    1.61e+00    0    1.14e+00
2006 09 11  2125    53989   77100      0    1.68e+00    0    1.18e+00
2006 09 11  2130    53989   77400      0    1.68e+00    0    1.19e+00
2006 09 11  2135    53989   77700      0    1.62e+00    0    1.14e+00
2006 09 11  2140    53989   78000      0    1.65e+00    0    1.15e+00
2006 09 11  2145    53989   78300      0    1.67e+00    0    1.17e+00
2006 09 11  2150    53989   78600      0    1.63e+00    0    1.14e+00
2006 09 11  2155    53989   78900      0    1.61e+00    0    1.14e+00
2006 09 11  2200    53989   79200      0    1.66e+00    0    1.16e+00
2006 09 11  2205    53989   79500      0    1.65e+00    0    1.15e+00
2006 09 11  2210    53989   79800      0    1.66e+00    0    1.17e+00
2006 09 11  2215    53989   80100      0    1.63e+00    0    1.14e+00
2006 09 11  2220    53989   80400      0    1.64e+00    0    1.16e+00
2006 09 11  2225    53989   80700      0    1.67e+00    0    1.16e+00
2006 09 11  2230    53989   81000      0    1.61e+00    0    1.13e+00
2006 09 11  2235    53989   81300      0    1.65e+00    0    1.16e+00
2006 09 11  2240    53989   81600      0    1.63e+00    0    1.14e+00
2006 09 11  2245    53989   81900      0    1.68e+00    0    1.18e+00
2006 09 11  2250    53989   82200      0    1.65e+00    0    1.16e+00
2006 09 11  2255    53989   82500      9   -1.00e+05    9   -1.00e+05
2006 09 11  2300    53989   82800      9   -1.00e+05    9   -1.00e+05
2006 09 11  2305    53989   83100      9   -1.00e+05    9   -1.00e+05
2006 09 11  2310    53989   83400      0    1.63e+00    0    1.14e+00
2006 09 11  2315    53989   83700      0    1.65e+00    0    1.16e+00
2006 09 11  2320    53989   84000      0    1.63e+00    0    1.15e+00
2006 09 11  2325    53989   84300      0    1.67e+00    0    1.18e+00
2006 09 11  2330    53989   84600      0    1.65e+00    0    1.15e+00
2006 09 11  2335    53989   84900      0    1.64e+00    0    1.15e+00
2006 09 11  2340    53989   85200      0    1.65e+00    0    1.16e+00
2006 09 11  2345    53989   85500      0    1.67e+00    0    1.15e+00
2006 09 11  2350    53989   85800      0    1.66e+00    0    1.16e+00
2006 09 11  2355    53989   86100      0    1.67e+00    0    1.18e+00
