:Data_list: 20060504_ace_sis_5m.txt
:Created: 2006 May 05 0011 UT
# Prepared by the U.S. Dept. of Commerce, NOAA, Space Environment Center.
# Please send comments and suggestions to SEC.Webmaster@noaa.gov 
# 
# Units: proton flux p/cs2-sec-ster
# Status(S): 0 = nominal data, 1 to 8 = bad data record, 9 = no data
# Missing data values: -1.00e+05
# Source: ACE Satellite - Solar Isotope Spectrometer
#
# 5-minute averaged Real-time Integral Flux of High-energy Solar Protons
# 
#                 Modified Seconds
# UT Date   Time   Julian  of the      ---- Integral Proton Flux ----
# YR MO DA  HHMM     Day     Day       S    > 10 MeV    S    > 30 MeV
#--------------------------------------------------------------------
2006 05 04  0000    53859       0      0    1.60e+00    0    1.12e+00
2006 05 04  0005    53859     300      0    1.61e+00    0    1.14e+00
2006 05 04  0010    53859     600      0    1.62e+00    0    1.14e+00
2006 05 04  0015    53859     900      0    1.64e+00    0    1.14e+00
2006 05 04  0020    53859    1200      0    1.64e+00    0    1.16e+00
2006 05 04  0025    53859    1500      0    1.61e+00    0    1.13e+00
2006 05 04  0030    53859    1800      0    1.58e+00    0    1.10e+00
2006 05 04  0035    53859    2100      0    1.61e+00    0    1.13e+00
2006 05 04  0040    53859    2400      0    1.61e+00    0    1.12e+00
2006 05 04  0045    53859    2700      0    1.61e+00    0    1.14e+00
2006 05 04  0050    53859    3000      0    1.58e+00    0    1.11e+00
2006 05 04  0055    53859    3300      0    1.60e+00    0    1.12e+00
2006 05 04  0100    53859    3600      0    1.65e+00    0    1.15e+00
2006 05 04  0105    53859    3900      0    1.64e+00    0    1.15e+00
2006 05 04  0110    53859    4200      0    1.62e+00    0    1.14e+00
2006 05 04  0115    53859    4500      0    1.64e+00    0    1.16e+00
2006 05 04  0120    53859    4800      0    1.62e+00    0    1.13e+00
2006 05 04  0125    53859    5100      0    1.55e+00    0    1.09e+00
2006 05 04  0130    53859    5400      0    1.62e+00    0    1.14e+00
2006 05 04  0135    53859    5700      0    1.62e+00    0    1.14e+00
2006 05 04  0140    53859    6000      0    1.61e+00    0    1.13e+00
2006 05 04  0145    53859    6300      0    1.62e+00    0    1.15e+00
2006 05 04  0150    53859    6600      0    1.64e+00    0    1.15e+00
2006 05 04  0155    53859    6900      0    1.62e+00    0    1.15e+00
2006 05 04  0200    53859    7200      0    1.60e+00    0    1.12e+00
2006 05 04  0205    53859    7500      0    1.60e+00    0    1.12e+00
2006 05 04  0210    53859    7800      0    1.59e+00    0    1.11e+00
2006 05 04  0215    53859    8100      0    1.58e+00    0    1.10e+00
2006 05 04  0220    53859    8400      0    1.66e+00    0    1.17e+00
2006 05 04  0225    53859    8700      0    1.63e+00    0    1.13e+00
2006 05 04  0230    53859    9000      0    1.61e+00    0    1.13e+00
2006 05 04  0235    53859    9300      0    1.60e+00    0    1.12e+00
2006 05 04  0240    53859    9600      0    1.62e+00    0    1.14e+00
2006 05 04  0245    53859    9900      0    1.60e+00    0    1.12e+00
2006 05 04  0250    53859   10200      0    1.61e+00    0    1.13e+00
2006 05 04  0255    53859   10500      0    1.62e+00    0    1.14e+00
2006 05 04  0300    53859   10800      0    1.59e+00    0    1.11e+00
2006 05 04  0305    53859   11100      0    1.59e+00    0    1.11e+00
2006 05 04  0310    53859   11400      0    1.59e+00    0    1.11e+00
2006 05 04  0315    53859   11700      0    1.62e+00    0    1.14e+00
2006 05 04  0320    53859   12000      0    1.59e+00    0    1.12e+00
2006 05 04  0325    53859   12300      0    1.64e+00    0    1.14e+00
2006 05 04  0330    53859   12600      0    1.59e+00    0    1.10e+00
2006 05 04  0335    53859   12900      0    1.62e+00    0    1.13e+00
2006 05 04  0340    53859   13200      0    1.58e+00    0    1.10e+00
2006 05 04  0345    53859   13500      0    1.58e+00    0    1.08e+00
2006 05 04  0350    53859   13800      0    1.61e+00    0    1.14e+00
2006 05 04  0355    53859   14100      0    1.59e+00    0    1.12e+00
2006 05 04  0400    53859   14400      0    1.63e+00    0    1.14e+00
2006 05 04  0405    53859   14700      0    1.63e+00    0    1.14e+00
2006 05 04  0410    53859   15000      0    1.61e+00    0    1.13e+00
2006 05 04  0415    53859   15300      0    1.60e+00    0    1.11e+00
2006 05 04  0420    53859   15600      0    1.57e+00    0    1.10e+00
2006 05 04  0425    53859   15900      0    1.59e+00    0    1.11e+00
2006 05 04  0430    53859   16200      0    1.61e+00    0    1.14e+00
2006 05 04  0435    53859   16500      0    1.64e+00    0    1.15e+00
2006 05 04  0440    53859   16800      0    1.58e+00    0    1.12e+00
2006 05 04  0445    53859   17100      0    1.62e+00    0    1.13e+00
2006 05 04  0450    53859   17400      0    1.60e+00    0    1.12e+00
2006 05 04  0455    53859   17700      0    1.59e+00    0    1.12e+00
2006 05 04  0500    53859   18000      0    1.61e+00    0    1.13e+00
2006 05 04  0505    53859   18300      0    1.59e+00    0    1.11e+00
2006 05 04  0510    53859   18600      0    1.60e+00    0    1.13e+00
2006 05 04  0515    53859   18900      0    1.64e+00    0    1.16e+00
2006 05 04  0520    53859   19200      0    1.58e+00    0    1.11e+00
2006 05 04  0525    53859   19500      0    1.61e+00    0    1.14e+00
2006 05 04  0530    53859   19800      0    1.60e+00    0    1.10e+00
2006 05 04  0535    53859   20100      0    1.61e+00    0    1.13e+00
2006 05 04  0540    53859   20400      0    1.59e+00    0    1.12e+00
2006 05 04  0545    53859   20700      0    1.63e+00    0    1.14e+00
2006 05 04  0550    53859   21000      0    1.62e+00    0    1.14e+00
2006 05 04  0555    53859   21300      0    1.62e+00    0    1.13e+00
2006 05 04  0600    53859   21600      0    1.64e+00    0    1.16e+00
2006 05 04  0605    53859   21900      0    1.58e+00    0    1.11e+00
2006 05 04  0610    53859   22200      0    1.62e+00    0    1.14e+00
2006 05 04  0615    53859   22500      0    1.60e+00    0    1.12e+00
2006 05 04  0620    53859   22800      0    1.61e+00    0    1.14e+00
2006 05 04  0625    53859   23100      0    1.62e+00    0    1.14e+00
2006 05 04  0630    53859   23400      0    1.63e+00    0    1.15e+00
2006 05 04  0635    53859   23700      0    1.60e+00    0    1.13e+00
2006 05 04  0640    53859   24000      0    1.63e+00    0    1.14e+00
2006 05 04  0645    53859   24300      0    1.59e+00    0    1.12e+00
2006 05 04  0650    53859   24600      0    1.60e+00    0    1.13e+00
2006 05 04  0655    53859   24900      0    1.59e+00    0    1.11e+00
2006 05 04  0700    53859   25200      0    1.60e+00    0    1.11e+00
2006 05 04  0705    53859   25500      0    1.62e+00    0    1.13e+00
2006 05 04  0710    53859   25800      0    1.63e+00    0    1.15e+00
2006 05 04  0715    53859   26100      0    1.63e+00    0    1.14e+00
2006 05 04  0720    53859   26400      0    1.56e+00    0    1.09e+00
2006 05 04  0725    53859   26700      0    1.59e+00    0    1.12e+00
2006 05 04  0730    53859   27000      0    1.60e+00    0    1.12e+00
2006 05 04  0735    53859   27300      0    1.62e+00    0    1.13e+00
2006 05 04  0740    53859   27600      0    1.57e+00    0    1.10e+00
2006 05 04  0745    53859   27900      0    1.60e+00    0    1.11e+00
2006 05 04  0750    53859   28200      0    1.59e+00    0    1.10e+00
2006 05 04  0755    53859   28500      0    1.60e+00    0    1.13e+00
2006 05 04  0800    53859   28800      0    1.59e+00    0    1.11e+00
2006 05 04  0805    53859   29100      0    1.60e+00    0    1.12e+00
2006 05 04  0810    53859   29400      0    1.60e+00    0    1.12e+00
2006 05 04  0815    53859   29700      0    1.62e+00    0    1.14e+00
2006 05 04  0820    53859   30000      0    1.57e+00    0    1.10e+00
2006 05 04  0825    53859   30300      0    1.60e+00    0    1.12e+00
2006 05 04  0830    53859   30600      0    1.61e+00    0    1.13e+00
2006 05 04  0835    53859   30900      0    1.64e+00    0    1.15e+00
2006 05 04  0840    53859   31200      0    1.61e+00    0    1.13e+00
2006 05 04  0845    53859   31500      0    1.62e+00    0    1.14e+00
2006 05 04  0850    53859   31800      0    1.58e+00    0    1.11e+00
2006 05 04  0855    53859   32100      0    1.61e+00    0    1.13e+00
2006 05 04  0900    53859   32400      0    1.61e+00    0    1.13e+00
2006 05 04  0905    53859   32700      0    1.59e+00    0    1.12e+00
2006 05 04  0910    53859   33000      0    1.59e+00    0    1.11e+00
2006 05 04  0915    53859   33300      0    1.60e+00    0    1.12e+00
2006 05 04  0920    53859   33600      0    1.60e+00    0    1.13e+00
2006 05 04  0925    53859   33900      0    1.63e+00    0    1.14e+00
2006 05 04  0930    53859   34200      0    1.63e+00    0    1.15e+00
2006 05 04  0935    53859   34500      0    1.60e+00    0    1.12e+00
2006 05 04  0940    53859   34800      0    1.57e+00    0    1.11e+00
2006 05 04  0945    53859   35100      0    1.62e+00    0    1.13e+00
2006 05 04  0950    53859   35400      0    1.59e+00    0    1.12e+00
2006 05 04  0955    53859   35700      0    1.59e+00    0    1.11e+00
2006 05 04  1000    53859   36000      0    1.57e+00    0    1.10e+00
2006 05 04  1005    53859   36300      0    1.61e+00    0    1.13e+00
2006 05 04  1010    53859   36600      0    1.63e+00    0    1.15e+00
2006 05 04  1015    53859   36900      0    1.63e+00    0    1.13e+00
2006 05 04  1020    53859   37200      0    1.63e+00    0    1.15e+00
2006 05 04  1025    53859   37500      0    1.57e+00    0    1.11e+00
2006 05 04  1030    53859   37800      0    1.58e+00    0    1.11e+00
2006 05 04  1035    53859   38100      0    1.60e+00    0    1.12e+00
2006 05 04  1040    53859   38400      0    1.60e+00    0    1.12e+00
2006 05 04  1045    53859   38700      0    1.61e+00    0    1.13e+00
2006 05 04  1050    53859   39000      0    1.59e+00    0    1.12e+00
2006 05 04  1055    53859   39300      0    1.62e+00    0    1.14e+00
2006 05 04  1100    53859   39600      0    1.63e+00    0    1.14e+00
2006 05 04  1105    53859   39900      0    1.60e+00    0    1.13e+00
2006 05 04  1110    53859   40200      0    1.58e+00    0    1.11e+00
2006 05 04  1115    53859   40500      0    1.60e+00    0    1.12e+00
2006 05 04  1120    53859   40800      0    1.59e+00    0    1.12e+00
2006 05 04  1125    53859   41100      0    1.58e+00    0    1.11e+00
2006 05 04  1130    53859   41400      0    1.63e+00    0    1.14e+00
2006 05 04  1135    53859   41700      0    1.61e+00    0    1.14e+00
2006 05 04  1140    53859   42000      0    1.61e+00    0    1.12e+00
2006 05 04  1145    53859   42300      0    1.60e+00    0    1.12e+00
2006 05 04  1150    53859   42600      0    1.60e+00    0    1.12e+00
2006 05 04  1155    53859   42900      0    1.61e+00    0    1.13e+00
2006 05 04  1200    53859   43200      0    1.61e+00    0    1.13e+00
2006 05 04  1205    53859   43500      0    1.61e+00    0    1.13e+00
2006 05 04  1210    53859   43800      0    1.57e+00    0    1.10e+00
2006 05 04  1215    53859   44100      0    1.61e+00    0    1.12e+00
2006 05 04  1220    53859   44400      0    1.57e+00    0    1.11e+00
2006 05 04  1225    53859   44700      0    1.62e+00    0    1.13e+00
2006 05 04  1230    53859   45000      0    1.61e+00    0    1.12e+00
2006 05 04  1235    53859   45300      0    1.62e+00    0    1.14e+00
2006 05 04  1240    53859   45600      0    1.63e+00    0    1.15e+00
2006 05 04  1245    53859   45900      0    1.63e+00    0    1.14e+00
2006 05 04  1250    53859   46200      0    1.58e+00    0    1.11e+00
2006 05 04  1255    53859   46500      0    1.59e+00    0    1.11e+00
2006 05 04  1300    53859   46800      0    1.62e+00    0    1.14e+00
2006 05 04  1305    53859   47100      0    1.59e+00    0    1.11e+00
2006 05 04  1310    53859   47400      0    1.62e+00    0    1.14e+00
2006 05 04  1315    53859   47700      0    1.64e+00    0    1.16e+00
2006 05 04  1320    53859   48000      0    1.61e+00    0    1.14e+00
2006 05 04  1325    53859   48300      0    1.60e+00    0    1.12e+00
2006 05 04  1330    53859   48600      0    1.59e+00    0    1.11e+00
2006 05 04  1335    53859   48900      0    1.64e+00    0    1.15e+00
2006 05 04  1340    53859   49200      0    1.59e+00    0    1.11e+00
2006 05 04  1345    53859   49500      0    1.62e+00    0    1.14e+00
2006 05 04  1350    53859   49800      0    1.60e+00    0    1.12e+00
2006 05 04  1355    53859   50100      0    1.60e+00    0    1.13e+00
2006 05 04  1400    53859   50400      0    1.59e+00    0    1.11e+00
2006 05 04  1405    53859   50700      0    1.57e+00    0    1.11e+00
2006 05 04  1410    53859   51000      0    1.61e+00    0    1.12e+00
2006 05 04  1415    53859   51300      0    1.65e+00    0    1.16e+00
2006 05 04  1420    53859   51600      0    1.58e+00    0    1.12e+00
2006 05 04  1425    53859   51900      0    1.58e+00    0    1.11e+00
2006 05 04  1430    53859   52200      0    1.61e+00    0    1.13e+00
2006 05 04  1435    53859   52500      0    1.64e+00    0    1.14e+00
2006 05 04  1440    53859   52800      0    1.60e+00    0    1.12e+00
2006 05 04  1445    53859   53100      0    1.60e+00    0    1.13e+00
2006 05 04  1450    53859   53400      0    1.58e+00    0    1.10e+00
2006 05 04  1455    53859   53700      0    1.61e+00    0    1.13e+00
2006 05 04  1500    53859   54000      0    1.56e+00    0    1.08e+00
2006 05 04  1505    53859   54300      0    1.59e+00    0    1.11e+00
2006 05 04  1510    53859   54600      0    1.60e+00    0    1.12e+00
2006 05 04  1515    53859   54900      0    1.60e+00    0    1.12e+00
2006 05 04  1520    53859   55200      0    1.58e+00    0    1.11e+00
2006 05 04  1525    53859   55500      0    1.61e+00    0    1.13e+00
2006 05 04  1530    53859   55800      0    1.62e+00    0    1.14e+00
2006 05 04  1535    53859   56100      0    1.66e+00    0    1.17e+00
2006 05 04  1540    53859   56400      0    1.62e+00    0    1.13e+00
2006 05 04  1545    53859   56700      0    1.62e+00    0    1.13e+00
2006 05 04  1550    53859   57000      0    1.66e+00    0    1.17e+00
2006 05 04  1555    53859   57300      0    1.59e+00    0    1.12e+00
2006 05 04  1600    53859   57600      0    1.60e+00    0    1.12e+00
2006 05 04  1605    53859   57900      0    1.60e+00    0    1.13e+00
2006 05 04  1610    53859   58200      0    1.55e+00    0    1.09e+00
2006 05 04  1615    53859   58500      0    1.60e+00    0    1.13e+00
2006 05 04  1620    53859   58800      0    1.59e+00    0    1.10e+00
2006 05 04  1625    53859   59100      0    1.60e+00    0    1.13e+00
2006 05 04  1630    53859   59400      0    1.59e+00    0    1.12e+00
2006 05 04  1635    53859   59700      0    1.59e+00    0    1.11e+00
2006 05 04  1640    53859   60000      0    1.62e+00    0    1.13e+00
2006 05 04  1645    53859   60300      0    1.60e+00    0    1.13e+00
2006 05 04  1650    53859   60600      0    1.59e+00    0    1.13e+00
2006 05 04  1655    53859   60900      0    1.60e+00    0    1.14e+00
2006 05 04  1700    53859   61200      0    1.60e+00    0    1.11e+00
2006 05 04  1705    53859   61500      0    1.59e+00    0    1.11e+00
2006 05 04  1710    53859   61800      0    1.62e+00    0    1.13e+00
2006 05 04  1715    53859   62100      0    1.61e+00    0    1.14e+00
2006 05 04  1720    53859   62400      0    1.64e+00    0    1.15e+00
2006 05 04  1725    53859   62700      0    1.63e+00    0    1.15e+00
2006 05 04  1730    53859   63000      0    1.60e+00    0    1.13e+00
2006 05 04  1735    53859   63300      0    1.59e+00    0    1.12e+00
2006 05 04  1740    53859   63600      0    1.66e+00    0    1.17e+00
2006 05 04  1745    53859   63900      0    1.65e+00    0    1.16e+00
2006 05 04  1750    53859   64200      0    1.61e+00    0    1.13e+00
2006 05 04  1755    53859   64500      0    1.60e+00    0    1.12e+00
2006 05 04  1800    53859   64800      0    1.60e+00    0    1.12e+00
2006 05 04  1805    53859   65100      0    1.61e+00    0    1.14e+00
2006 05 04  1810    53859   65400      0    1.56e+00    0    1.10e+00
2006 05 04  1815    53859   65700      0    1.59e+00    0    1.11e+00
2006 05 04  1820    53859   66000      0    1.60e+00    0    1.13e+00
2006 05 04  1825    53859   66300      0    1.60e+00    0    1.11e+00
2006 05 04  1830    53859   66600      0    1.60e+00    0    1.12e+00
2006 05 04  1835    53859   66900      0    1.62e+00    0    1.13e+00
2006 05 04  1840    53859   67200      0    1.60e+00    0    1.11e+00
2006 05 04  1845    53859   67500      0    1.60e+00    0    1.12e+00
2006 05 04  1850    53859   67800      0    1.59e+00    0    1.11e+00
2006 05 04  1855    53859   68100      0    1.58e+00    0    1.11e+00
2006 05 04  1900    53859   68400      0    1.61e+00    0    1.12e+00
2006 05 04  1905    53859   68700      0    1.58e+00    0    1.11e+00
2006 05 04  1910    53859   69000      0    1.57e+00    0    1.10e+00
2006 05 04  1915    53859   69300      0    1.62e+00    0    1.12e+00
2006 05 04  1920    53859   69600      0    1.62e+00    0    1.14e+00
2006 05 04  1925    53859   69900      0    1.61e+00    0    1.13e+00
2006 05 04  1930    53859   70200      0    1.60e+00    0    1.11e+00
2006 05 04  1935    53859   70500      0    1.59e+00    0    1.12e+00
2006 05 04  1940    53859   70800      0    1.62e+00    0    1.14e+00
2006 05 04  1945    53859   71100      0    1.58e+00    0    1.10e+00
2006 05 04  1950    53859   71400      0    1.60e+00    0    1.11e+00
2006 05 04  1955    53859   71700      0    1.58e+00    0    1.09e+00
2006 05 04  2000    53859   72000      0    1.62e+00    0    1.15e+00
2006 05 04  2005    53859   72300      0    1.58e+00    0    1.10e+00
2006 05 04  2010    53859   72600      0    1.58e+00    0    1.11e+00
2006 05 04  2015    53859   72900      0    1.61e+00    0    1.14e+00
2006 05 04  2020    53859   73200      0    1.64e+00    0    1.15e+00
2006 05 04  2025    53859   73500      0    1.59e+00    0    1.11e+00
2006 05 04  2030    53859   73800      0    1.60e+00    0    1.12e+00
2006 05 04  2035    53859   74100      0    1.62e+00    0    1.14e+00
2006 05 04  2040    53859   74400      0    1.61e+00    0    1.15e+00
2006 05 04  2045    53859   74700      0    1.62e+00    0    1.14e+00
2006 05 04  2050    53859   75000      0    1.62e+00    0    1.13e+00
2006 05 04  2055    53859   75300      0    1.60e+00    0    1.11e+00
2006 05 04  2100    53859   75600      0    1.63e+00    0    1.15e+00
2006 05 04  2105    53859   75900      0    1.61e+00    0    1.13e+00
2006 05 04  2110    53859   76200      0    1.57e+00    0    1.10e+00
2006 05 04  2115    53859   76500      0    1.61e+00    0    1.13e+00
2006 05 04  2120    53859   76800      0    1.63e+00    0    1.13e+00
2006 05 04  2125    53859   77100      0    1.62e+00    0    1.14e+00
2006 05 04  2130    53859   77400      0    1.61e+00    0    1.12e+00
2006 05 04  2135    53859   77700      0    1.53e+00    0    1.08e+00
2006 05 04  2140    53859   78000      0    1.61e+00    0    1.13e+00
2006 05 04  2145    53859   78300      0    1.62e+00    0    1.13e+00
2006 05 04  2150    53859   78600      0    1.61e+00    0    1.12e+00
2006 05 04  2155    53859   78900      0    1.61e+00    0    1.12e+00
2006 05 04  2200    53859   79200      0    1.60e+00    0    1.12e+00
2006 05 04  2205    53859   79500      0    1.59e+00    0    1.13e+00
2006 05 04  2210    53859   79800      0    1.65e+00    0    1.16e+00
2006 05 04  2215    53859   80100      0    1.62e+00    0    1.15e+00
2006 05 04  2220    53859   80400      0    1.59e+00    0    1.11e+00
2006 05 04  2225    53859   80700      0    1.58e+00    0    1.10e+00
2006 05 04  2230    53859   81000      0    1.59e+00    0    1.11e+00
2006 05 04  2235    53859   81300      0    1.66e+00    0    1.16e+00
2006 05 04  2240    53859   81600      0    1.64e+00    0    1.14e+00
2006 05 04  2245    53859   81900      0    1.60e+00    0    1.13e+00
2006 05 04  2250    53859   82200      0    1.63e+00    0    1.13e+00
2006 05 04  2255    53859   82500      0    1.61e+00    0    1.12e+00
2006 05 04  2300    53859   82800      0    1.60e+00    0    1.12e+00
2006 05 04  2305    53859   83100      0    1.59e+00    0    1.10e+00
2006 05 04  2310    53859   83400      0    1.60e+00    0    1.12e+00
2006 05 04  2315    53859   83700      0    1.66e+00    0    1.17e+00
2006 05 04  2320    53859   84000      0    1.60e+00    0    1.13e+00
2006 05 04  2325    53859   84300      0    1.61e+00    0    1.14e+00
2006 05 04  2330    53859   84600      0    1.59e+00    0    1.11e+00
2006 05 04  2335    53859   84900      0    1.67e+00    0    1.17e+00
2006 05 04  2340    53859   85200      0    1.65e+00    0    1.16e+00
2006 05 04  2345    53859   85500      0    1.62e+00    0    1.13e+00
2006 05 04  2350    53859   85800      0    1.61e+00    0    1.12e+00
2006 05 04  2355    53859   86100      0    1.60e+00    0    1.12e+00
