:Data_list: 20061108_ace_sis_5m.txt
:Created: 2006 Nov 09 0011 UT
# Prepared by the U.S. Dept. of Commerce, NOAA, Space Environment Center.
# Please send comments and suggestions to SEC.Webmaster@noaa.gov 
# 
# Units: proton flux p/cs2-sec-ster
# Status(S): 0 = nominal data, 1 to 8 = bad data record, 9 = no data
# Missing data values: -1.00e+05
# Source: ACE Satellite - Solar Isotope Spectrometer
#
# 5-minute averaged Real-time Integral Flux of High-energy Solar Protons
# 
#                 Modified Seconds
# UT Date   Time   Julian  of the      ---- Integral Proton Flux ----
# YR MO DA  HHMM     Day     Day       S    > 10 MeV    S    > 30 MeV
#--------------------------------------------------------------------
2006 11 08  0000    54047       0      0    1.76e+00    0    1.22e+00
2006 11 08  0005    54047     300      0    1.75e+00    0    1.21e+00
2006 11 08  0010    54047     600      0    1.78e+00    0    1.25e+00
2006 11 08  0015    54047     900      0    1.79e+00    0    1.25e+00
2006 11 08  0020    54047    1200      0    1.79e+00    0    1.24e+00
2006 11 08  0025    54047    1500      0    1.76e+00    0    1.24e+00
2006 11 08  0030    54047    1800      0    1.77e+00    0    1.22e+00
2006 11 08  0035    54047    2100      0    1.79e+00    0    1.24e+00
2006 11 08  0040    54047    2400      0    1.77e+00    0    1.22e+00
2006 11 08  0045    54047    2700      0    1.81e+00    0    1.25e+00
2006 11 08  0050    54047    3000      0    1.75e+00    0    1.22e+00
2006 11 08  0055    54047    3300      0    1.73e+00    0    1.20e+00
2006 11 08  0100    54047    3600      0    1.79e+00    0    1.24e+00
2006 11 08  0105    54047    3900      0    1.74e+00    0    1.22e+00
2006 11 08  0110    54047    4200      0    1.64e+00    0    1.12e+00
2006 11 08  0115    54047    4500      0    1.80e+00    0    1.26e+00
2006 11 08  0120    54047    4800      0    1.78e+00    0    1.24e+00
2006 11 08  0125    54047    5100      0    1.78e+00    0    1.23e+00
2006 11 08  0130    54047    5400      0    1.75e+00    0    1.23e+00
2006 11 08  0135    54047    5700      0    1.81e+00    0    1.26e+00
2006 11 08  0140    54047    6000      0    1.83e+00    0    1.27e+00
2006 11 08  0145    54047    6300      9   -1.00e+05    9   -1.00e+05
2006 11 08  0150    54047    6600      0    1.74e+00    0    1.21e+00
2006 11 08  0155    54047    6900      0    1.77e+00    0    1.22e+00
2006 11 08  0200    54047    7200      0    1.73e+00    0    1.20e+00
2006 11 08  0205    54047    7500      0    1.75e+00    0    1.21e+00
2006 11 08  0210    54047    7800      0    1.78e+00    0    1.24e+00
2006 11 08  0215    54047    8100      0    1.77e+00    0    1.24e+00
2006 11 08  0220    54047    8400      0    1.79e+00    0    1.23e+00
2006 11 08  0225    54047    8700      0    1.77e+00    0    1.24e+00
2006 11 08  0230    54047    9000      0    1.77e+00    0    1.22e+00
2006 11 08  0235    54047    9300      0    1.76e+00    0    1.22e+00
2006 11 08  0240    54047    9600      0    1.76e+00    0    1.23e+00
2006 11 08  0245    54047    9900      0    1.76e+00    0    1.23e+00
2006 11 08  0250    54047   10200      0    1.80e+00    0    1.25e+00
2006 11 08  0255    54047   10500      0    1.78e+00    0    1.25e+00
2006 11 08  0300    54047   10800      0    1.76e+00    0    1.21e+00
2006 11 08  0305    54047   11100      0    1.76e+00    0    1.22e+00
2006 11 08  0310    54047   11400      0    1.78e+00    0    1.23e+00
2006 11 08  0315    54047   11700      0    1.73e+00    0    1.20e+00
2006 11 08  0320    54047   12000      0    1.79e+00    0    1.26e+00
2006 11 08  0325    54047   12300      0    1.78e+00    0    1.22e+00
2006 11 08  0330    54047   12600      0    1.76e+00    0    1.24e+00
2006 11 08  0335    54047   12900      0    1.79e+00    0    1.25e+00
2006 11 08  0340    54047   13200      0    1.77e+00    0    1.23e+00
2006 11 08  0345    54047   13500      0    1.81e+00    0    1.25e+00
2006 11 08  0350    54047   13800      0    1.76e+00    0    1.23e+00
2006 11 08  0355    54047   14100      0    1.78e+00    0    1.24e+00
2006 11 08  0400    54047   14400      0    1.79e+00    0    1.25e+00
2006 11 08  0405    54047   14700      0    1.76e+00    0    1.22e+00
2006 11 08  0410    54047   15000      0    1.76e+00    0    1.22e+00
2006 11 08  0415    54047   15300      0    1.76e+00    0    1.22e+00
2006 11 08  0420    54047   15600      0    1.79e+00    0    1.24e+00
2006 11 08  0425    54047   15900      0    1.77e+00    0    1.23e+00
2006 11 08  0430    54047   16200      0    1.77e+00    0    1.23e+00
2006 11 08  0435    54047   16500      0    1.75e+00    0    1.22e+00
2006 11 08  0440    54047   16800      0    1.78e+00    0    1.24e+00
2006 11 08  0445    54047   17100      0    1.82e+00    0    1.26e+00
2006 11 08  0450    54047   17400      0    1.76e+00    0    1.21e+00
2006 11 08  0455    54047   17700      0    1.75e+00    0    1.21e+00
2006 11 08  0500    54047   18000      0    1.81e+00    0    1.26e+00
2006 11 08  0505    54047   18300      0    1.78e+00    0    1.25e+00
2006 11 08  0510    54047   18600      0    1.79e+00    0    1.24e+00
2006 11 08  0515    54047   18900      0    1.79e+00    0    1.25e+00
2006 11 08  0520    54047   19200      0    1.78e+00    0    1.24e+00
2006 11 08  0525    54047   19500      0    1.83e+00    0    1.27e+00
2006 11 08  0530    54047   19800      0    1.74e+00    0    1.20e+00
2006 11 08  0535    54047   20100      0    1.81e+00    0    1.24e+00
2006 11 08  0540    54047   20400      0    1.76e+00    0    1.21e+00
2006 11 08  0545    54047   20700      0    1.83e+00    0    1.26e+00
2006 11 08  0550    54047   21000      0    1.84e+00    0    1.27e+00
2006 11 08  0555    54047   21300      0    1.83e+00    0    1.28e+00
2006 11 08  0600    54047   21600      0    1.78e+00    0    1.22e+00
2006 11 08  0605    54047   21900      0    1.81e+00    0    1.24e+00
2006 11 08  0610    54047   22200      0    1.80e+00    0    1.25e+00
2006 11 08  0615    54047   22500      0    1.77e+00    0    1.23e+00
2006 11 08  0620    54047   22800      0    1.78e+00    0    1.23e+00
2006 11 08  0625    54047   23100      0    1.82e+00    0    1.27e+00
2006 11 08  0630    54047   23400      0    1.79e+00    0    1.25e+00
2006 11 08  0635    54047   23700      0    1.81e+00    0    1.26e+00
2006 11 08  0640    54047   24000      0    1.75e+00    0    1.22e+00
2006 11 08  0645    54047   24300      0    1.80e+00    0    1.24e+00
2006 11 08  0650    54047   24600      0    1.82e+00    0    1.26e+00
2006 11 08  0655    54047   24900      0    1.80e+00    0    1.24e+00
2006 11 08  0700    54047   25200      0    1.82e+00    0    1.25e+00
2006 11 08  0705    54047   25500      0    1.80e+00    0    1.25e+00
2006 11 08  0710    54047   25800      0    1.82e+00    0    1.26e+00
2006 11 08  0715    54047   26100      0    1.77e+00    0    1.23e+00
2006 11 08  0720    54047   26400      0    1.78e+00    0    1.25e+00
2006 11 08  0725    54047   26700      0    1.79e+00    0    1.24e+00
2006 11 08  0730    54047   27000      0    1.78e+00    0    1.22e+00
2006 11 08  0735    54047   27300      0    1.74e+00    0    1.20e+00
2006 11 08  0740    54047   27600      0    1.79e+00    0    1.24e+00
2006 11 08  0745    54047   27900      0    1.81e+00    0    1.27e+00
2006 11 08  0750    54047   28200      0    1.77e+00    0    1.23e+00
2006 11 08  0755    54047   28500      0    1.78e+00    0    1.24e+00
2006 11 08  0800    54047   28800      0    1.79e+00    0    1.24e+00
2006 11 08  0805    54047   29100      0    1.76e+00    0    1.22e+00
2006 11 08  0810    54047   29400      0    1.81e+00    0    1.25e+00
2006 11 08  0815    54047   29700      0    1.76e+00    0    1.21e+00
2006 11 08  0820    54047   30000      0    1.79e+00    0    1.25e+00
2006 11 08  0825    54047   30300      0    1.79e+00    0    1.24e+00
2006 11 08  0830    54047   30600      0    1.77e+00    0    1.23e+00
2006 11 08  0835    54047   30900      0    1.82e+00    0    1.26e+00
2006 11 08  0840    54047   31200      0    1.75e+00    0    1.20e+00
2006 11 08  0845    54047   31500      0    1.75e+00    0    1.21e+00
2006 11 08  0850    54047   31800      0    1.73e+00    0    1.19e+00
2006 11 08  0855    54047   32100      0    1.80e+00    0    1.23e+00
2006 11 08  0900    54047   32400      0    1.77e+00    0    1.20e+00
2006 11 08  0905    54047   32700      0    1.76e+00    0    1.23e+00
2006 11 08  0910    54047   33000      0    1.75e+00    0    1.22e+00
2006 11 08  0915    54047   33300      0    1.77e+00    0    1.23e+00
2006 11 08  0920    54047   33600      0    1.79e+00    0    1.24e+00
2006 11 08  0925    54047   33900      0    1.80e+00    0    1.25e+00
2006 11 08  0930    54047   34200      0    1.76e+00    0    1.20e+00
2006 11 08  0935    54047   34500      0    1.76e+00    0    1.24e+00
2006 11 08  0940    54047   34800      0    1.78e+00    0    1.24e+00
2006 11 08  0945    54047   35100      0    1.75e+00    0    1.19e+00
2006 11 08  0950    54047   35400      0    1.79e+00    0    1.25e+00
2006 11 08  0955    54047   35700      0    1.75e+00    0    1.21e+00
2006 11 08  1000    54047   36000      0    1.77e+00    0    1.23e+00
2006 11 08  1005    54047   36300      0    1.73e+00    0    1.20e+00
2006 11 08  1010    54047   36600      0    1.74e+00    0    1.21e+00
2006 11 08  1015    54047   36900      0    1.76e+00    0    1.22e+00
2006 11 08  1020    54047   37200      0    1.74e+00    0    1.20e+00
2006 11 08  1025    54047   37500      0    1.75e+00    0    1.21e+00
2006 11 08  1030    54047   37800      0    1.76e+00    0    1.21e+00
2006 11 08  1035    54047   38100      0    1.77e+00    0    1.22e+00
2006 11 08  1040    54047   38400      0    1.78e+00    0    1.23e+00
2006 11 08  1045    54047   38700      0    1.79e+00    0    1.24e+00
2006 11 08  1050    54047   39000      0    1.76e+00    0    1.22e+00
2006 11 08  1055    54047   39300      0    1.78e+00    0    1.23e+00
2006 11 08  1100    54047   39600      0    1.73e+00    0    1.19e+00
2006 11 08  1105    54047   39900      0    1.80e+00    0    1.25e+00
2006 11 08  1110    54047   40200      0    1.74e+00    0    1.21e+00
2006 11 08  1115    54047   40500      0    1.80e+00    0    1.24e+00
2006 11 08  1120    54047   40800      0    1.77e+00    0    1.23e+00
2006 11 08  1125    54047   41100      0    1.74e+00    0    1.20e+00
2006 11 08  1130    54047   41400      0    1.76e+00    0    1.20e+00
2006 11 08  1135    54047   41700      0    1.78e+00    0    1.23e+00
2006 11 08  1140    54047   42000      0    1.75e+00    0    1.23e+00
2006 11 08  1145    54047   42300      0    1.73e+00    0    1.19e+00
2006 11 08  1150    54047   42600      0    1.74e+00    0    1.19e+00
2006 11 08  1155    54047   42900      0    1.79e+00    0    1.23e+00
2006 11 08  1200    54047   43200      0    1.74e+00    0    1.20e+00
2006 11 08  1205    54047   43500      0    1.71e+00    0    1.18e+00
2006 11 08  1210    54047   43800      0    1.75e+00    0    1.22e+00
2006 11 08  1215    54047   44100      0    1.73e+00    0    1.20e+00
2006 11 08  1220    54047   44400      0    1.74e+00    0    1.20e+00
2006 11 08  1225    54047   44700      0    1.77e+00    0    1.22e+00
2006 11 08  1230    54047   45000      0    1.76e+00    0    1.21e+00
2006 11 08  1235    54047   45300      0    1.77e+00    0    1.22e+00
2006 11 08  1240    54047   45600      0    1.78e+00    0    1.23e+00
2006 11 08  1245    54047   45900      0    1.77e+00    0    1.22e+00
2006 11 08  1250    54047   46200      0    1.77e+00    0    1.22e+00
2006 11 08  1255    54047   46500      0    1.74e+00    0    1.21e+00
2006 11 08  1300    54047   46800      0    1.73e+00    0    1.20e+00
2006 11 08  1305    54047   47100      0    1.76e+00    0    1.22e+00
2006 11 08  1310    54047   47400      0    1.78e+00    0    1.24e+00
2006 11 08  1315    54047   47700      0    1.76e+00    0    1.23e+00
2006 11 08  1320    54047   48000      0    1.76e+00    0    1.22e+00
2006 11 08  1325    54047   48300      0    1.78e+00    0    1.24e+00
2006 11 08  1330    54047   48600      0    1.79e+00    0    1.25e+00
2006 11 08  1335    54047   48900      0    1.75e+00    0    1.21e+00
2006 11 08  1340    54047   49200      0    1.72e+00    0    1.18e+00
2006 11 08  1345    54047   49500      0    1.76e+00    0    1.22e+00
2006 11 08  1350    54047   49800      0    1.76e+00    0    1.21e+00
2006 11 08  1355    54047   50100      0    1.73e+00    0    1.22e+00
2006 11 08  1400    54047   50400      0    1.76e+00    0    1.22e+00
2006 11 08  1405    54047   50700      0    1.75e+00    0    1.22e+00
2006 11 08  1410    54047   51000      0    1.78e+00    0    1.24e+00
2006 11 08  1415    54047   51300      0    1.77e+00    0    1.23e+00
2006 11 08  1420    54047   51600      0    1.74e+00    0    1.18e+00
2006 11 08  1425    54047   51900      0    1.74e+00    0    1.22e+00
2006 11 08  1430    54047   52200      0    1.75e+00    0    1.22e+00
2006 11 08  1435    54047   52500      0    1.79e+00    0    1.25e+00
2006 11 08  1440    54047   52800      0    1.78e+00    0    1.24e+00
2006 11 08  1445    54047   53100      0    1.77e+00    0    1.21e+00
2006 11 08  1450    54047   53400      0    1.75e+00    0    1.22e+00
2006 11 08  1455    54047   53700      0    1.75e+00    0    1.21e+00
2006 11 08  1500    54047   54000      0    1.74e+00    0    1.19e+00
2006 11 08  1505    54047   54300      0    1.75e+00    0    1.22e+00
2006 11 08  1510    54047   54600      0    1.74e+00    0    1.20e+00
2006 11 08  1515    54047   54900      0    1.73e+00    0    1.20e+00
2006 11 08  1520    54047   55200      0    1.73e+00    0    1.20e+00
2006 11 08  1525    54047   55500      0    1.75e+00    0    1.22e+00
2006 11 08  1530    54047   55800      0    1.80e+00    0    1.25e+00
2006 11 08  1535    54047   56100      9   -1.00e+05    9   -1.00e+05
2006 11 08  1540    54047   56400      9   -1.00e+05    9   -1.00e+05
2006 11 08  1545    54047   56700      9   -1.00e+05    9   -1.00e+05
2006 11 08  1550    54047   57000      9   -1.00e+05    9   -1.00e+05
2006 11 08  1555    54047   57300      9   -1.00e+05    9   -1.00e+05
2006 11 08  1600    54047   57600      9   -1.00e+05    9   -1.00e+05
2006 11 08  1605    54047   57900      9   -1.00e+05    9   -1.00e+05
2006 11 08  1610    54047   58200      9   -1.00e+05    9   -1.00e+05
2006 11 08  1615    54047   58500      9   -1.00e+05    9   -1.00e+05
2006 11 08  1620    54047   58800      9   -1.00e+05    9   -1.00e+05
2006 11 08  1625    54047   59100      9   -1.00e+05    9   -1.00e+05
2006 11 08  1630    54047   59400      9   -1.00e+05    9   -1.00e+05
2006 11 08  1635    54047   59700      9   -1.00e+05    9   -1.00e+05
2006 11 08  1640    54047   60000      9   -1.00e+05    9   -1.00e+05
2006 11 08  1645    54047   60300      9   -1.00e+05    9   -1.00e+05
2006 11 08  1650    54047   60600      9   -1.00e+05    9   -1.00e+05
2006 11 08  1655    54047   60900      9   -1.00e+05    9   -1.00e+05
2006 11 08  1700    54047   61200      9   -1.00e+05    9   -1.00e+05
2006 11 08  1705    54047   61500      9   -1.00e+05    9   -1.00e+05
2006 11 08  1710    54047   61800      9   -1.00e+05    9   -1.00e+05
2006 11 08  1715    54047   62100      9   -1.00e+05    9   -1.00e+05
2006 11 08  1720    54047   62400      9   -1.00e+05    9   -1.00e+05
2006 11 08  1725    54047   62700      9   -1.00e+05    9   -1.00e+05
2006 11 08  1730    54047   63000      9   -1.00e+05    9   -1.00e+05
2006 11 08  1735    54047   63300      9   -1.00e+05    9   -1.00e+05
2006 11 08  1740    54047   63600      9   -1.00e+05    9   -1.00e+05
2006 11 08  1745    54047   63900      9   -1.00e+05    9   -1.00e+05
2006 11 08  1750    54047   64200      9   -1.00e+05    9   -1.00e+05
2006 11 08  1755    54047   64500      9   -1.00e+05    9   -1.00e+05
2006 11 08  1800    54047   64800      9   -1.00e+05    9   -1.00e+05
2006 11 08  1805    54047   65100      9   -1.00e+05    9   -1.00e+05
2006 11 08  1810    54047   65400      9   -1.00e+05    9   -1.00e+05
2006 11 08  1815    54047   65700      9   -1.00e+05    9   -1.00e+05
2006 11 08  1820    54047   66000      9   -1.00e+05    9   -1.00e+05
2006 11 08  1825    54047   66300      9   -1.00e+05    9   -1.00e+05
2006 11 08  1830    54047   66600      9   -1.00e+05    9   -1.00e+05
2006 11 08  1835    54047   66900      9   -1.00e+05    9   -1.00e+05
2006 11 08  1840    54047   67200      9   -1.00e+05    9   -1.00e+05
2006 11 08  1845    54047   67500      0    1.81e+00    0    1.27e+00
2006 11 08  1850    54047   67800      0    1.79e+00    0    1.26e+00
2006 11 08  1855    54047   68100      0    1.72e+00    0    1.19e+00
2006 11 08  1900    54047   68400      0    1.73e+00    0    1.19e+00
2006 11 08  1905    54047   68700      0    1.74e+00    0    1.21e+00
2006 11 08  1910    54047   69000      0    1.77e+00    0    1.23e+00
2006 11 08  1915    54047   69300      0    1.76e+00    0    1.21e+00
2006 11 08  1920    54047   69600      0    1.78e+00    0    1.24e+00
2006 11 08  1925    54047   69900      0    1.76e+00    0    1.21e+00
2006 11 08  1930    54047   70200      0    1.77e+00    0    1.24e+00
2006 11 08  1935    54047   70500      0    1.73e+00    0    1.20e+00
2006 11 08  1940    54047   70800      0    1.76e+00    0    1.24e+00
2006 11 08  1945    54047   71100      0    1.73e+00    0    1.21e+00
2006 11 08  1950    54047   71400      0    1.74e+00    0    1.20e+00
2006 11 08  1955    54047   71700      0    1.82e+00    0    1.27e+00
2006 11 08  2000    54047   72000      0    1.74e+00    0    1.21e+00
2006 11 08  2005    54047   72300      0    1.75e+00    0    1.20e+00
2006 11 08  2010    54047   72600      0    1.75e+00    0    1.22e+00
2006 11 08  2015    54047   72900      0    1.81e+00    0    1.26e+00
2006 11 08  2020    54047   73200      0    1.78e+00    0    1.23e+00
2006 11 08  2025    54047   73500      0    1.75e+00    0    1.22e+00
2006 11 08  2030    54047   73800      0    1.73e+00    0    1.19e+00
2006 11 08  2035    54047   74100      0    1.75e+00    0    1.21e+00
2006 11 08  2040    54047   74400      0    1.75e+00    0    1.21e+00
2006 11 08  2045    54047   74700      0    1.80e+00    0    1.25e+00
2006 11 08  2050    54047   75000      0    1.74e+00    0    1.21e+00
2006 11 08  2055    54047   75300      0    1.77e+00    0    1.22e+00
2006 11 08  2100    54047   75600      0    1.75e+00    0    1.22e+00
2006 11 08  2105    54047   75900      0    1.80e+00    0    1.26e+00
2006 11 08  2110    54047   76200      9   -1.00e+05    9   -1.00e+05
2006 11 08  2115    54047   76500      9   -1.00e+05    9   -1.00e+05
2006 11 08  2120    54047   76800      9   -1.00e+05    9   -1.00e+05
2006 11 08  2125    54047   77100      9   -1.00e+05    9   -1.00e+05
2006 11 08  2130    54047   77400      9   -1.00e+05    9   -1.00e+05
2006 11 08  2135    54047   77700      0    1.75e+00    0    1.22e+00
2006 11 08  2140    54047   78000      0    1.80e+00    0    1.25e+00
2006 11 08  2145    54047   78300      0    1.76e+00    0    1.22e+00
2006 11 08  2150    54047   78600      0    1.78e+00    0    1.23e+00
2006 11 08  2155    54047   78900      0    1.80e+00    0    1.25e+00
2006 11 08  2200    54047   79200      0    1.80e+00    0    1.25e+00
2006 11 08  2205    54047   79500      0    1.73e+00    0    1.19e+00
2006 11 08  2210    54047   79800      0    1.79e+00    0    1.23e+00
2006 11 08  2215    54047   80100      0    1.80e+00    0    1.25e+00
2006 11 08  2220    54047   80400      0    1.78e+00    0    1.23e+00
2006 11 08  2225    54047   80700      0    1.75e+00    0    1.22e+00
2006 11 08  2230    54047   81000      0    1.79e+00    0    1.23e+00
2006 11 08  2235    54047   81300      0    1.78e+00    0    1.23e+00
2006 11 08  2240    54047   81600      0    1.74e+00    0    1.19e+00
2006 11 08  2245    54047   81900      0    1.77e+00    0    1.23e+00
2006 11 08  2250    54047   82200      0    1.73e+00    0    1.19e+00
2006 11 08  2255    54047   82500      0    1.75e+00    0    1.22e+00
2006 11 08  2300    54047   82800      0    1.76e+00    0    1.21e+00
2006 11 08  2305    54047   83100      0    1.79e+00    0    1.24e+00
2006 11 08  2310    54047   83400      0    1.78e+00    0    1.24e+00
2006 11 08  2315    54047   83700      0    1.77e+00    0    1.22e+00
2006 11 08  2320    54047   84000      0    1.78e+00    0    1.25e+00
2006 11 08  2325    54047   84300      0    1.79e+00    0    1.26e+00
2006 11 08  2330    54047   84600      0    1.80e+00    0    1.25e+00
2006 11 08  2335    54047   84900      0    1.77e+00    0    1.23e+00
2006 11 08  2340    54047   85200      0    1.78e+00    0    1.24e+00
2006 11 08  2345    54047   85500      0    1.77e+00    0    1.23e+00
2006 11 08  2350    54047   85800      0    1.73e+00    0    1.20e+00
2006 11 08  2355    54047   86100      0    1.75e+00    0    1.21e+00
