:Data_list: 20061115_ace_sis_5m.txt
:Created: 2006 Nov 16 0011 UT
# Prepared by the U.S. Dept. of Commerce, NOAA, Space Environment Center.
# Please send comments and suggestions to SEC.Webmaster@noaa.gov 
# 
# Units: proton flux p/cs2-sec-ster
# Status(S): 0 = nominal data, 1 to 8 = bad data record, 9 = no data
# Missing data values: -1.00e+05
# Source: ACE Satellite - Solar Isotope Spectrometer
#
# 5-minute averaged Real-time Integral Flux of High-energy Solar Protons
# 
#                 Modified Seconds
# UT Date   Time   Julian  of the      ---- Integral Proton Flux ----
# YR MO DA  HHMM     Day     Day       S    > 10 MeV    S    > 30 MeV
#--------------------------------------------------------------------
2006 11 15  0000    54054       0      0    1.62e+00    0    1.14e+00
2006 11 15  0005    54054     300      0    1.67e+00    0    1.18e+00
2006 11 15  0010    54054     600      0    1.66e+00    0    1.16e+00
2006 11 15  0015    54054     900      0    1.66e+00    0    1.17e+00
2006 11 15  0020    54054    1200      0    1.67e+00    0    1.16e+00
2006 11 15  0025    54054    1500      0    1.70e+00    0    1.19e+00
2006 11 15  0030    54054    1800      0    1.60e+00    0    1.11e+00
2006 11 15  0035    54054    2100      0    1.58e+00    0    1.12e+00
2006 11 15  0040    54054    2400      0    1.63e+00    0    1.14e+00
2006 11 15  0045    54054    2700      0    1.66e+00    0    1.15e+00
2006 11 15  0050    54054    3000      0    1.63e+00    0    1.14e+00
2006 11 15  0055    54054    3300      0    1.60e+00    0    1.12e+00
2006 11 15  0100    54054    3600      0    1.64e+00    0    1.14e+00
2006 11 15  0105    54054    3900      0    1.64e+00    0    1.16e+00
2006 11 15  0110    54054    4200      0    1.66e+00    0    1.15e+00
2006 11 15  0115    54054    4500      0    1.68e+00    0    1.17e+00
2006 11 15  0120    54054    4800      0    1.64e+00    0    1.15e+00
2006 11 15  0125    54054    5100      0    1.63e+00    0    1.14e+00
2006 11 15  0130    54054    5400      0    1.64e+00    0    1.16e+00
2006 11 15  0135    54054    5700      0    1.62e+00    0    1.14e+00
2006 11 15  0140    54054    6000      0    1.62e+00    0    1.14e+00
2006 11 15  0145    54054    6300      0    1.62e+00    0    1.13e+00
2006 11 15  0150    54054    6600      0    1.66e+00    0    1.16e+00
2006 11 15  0155    54054    6900      0    1.63e+00    0    1.15e+00
2006 11 15  0200    54054    7200      0    1.65e+00    0    1.15e+00
2006 11 15  0205    54054    7500      0    1.64e+00    0    1.16e+00
2006 11 15  0210    54054    7800      0    1.60e+00    0    1.12e+00
2006 11 15  0215    54054    8100      0    1.64e+00    0    1.15e+00
2006 11 15  0220    54054    8400      0    1.64e+00    0    1.14e+00
2006 11 15  0225    54054    8700      0    1.65e+00    0    1.16e+00
2006 11 15  0230    54054    9000      0    1.62e+00    0    1.13e+00
2006 11 15  0235    54054    9300      0    1.61e+00    0    1.13e+00
2006 11 15  0240    54054    9600      0    1.64e+00    0    1.17e+00
2006 11 15  0245    54054    9900      0    1.66e+00    0    1.16e+00
2006 11 15  0250    54054   10200      0    1.63e+00    0    1.14e+00
2006 11 15  0255    54054   10500      0    1.62e+00    0    1.14e+00
2006 11 15  0300    54054   10800      0    1.64e+00    0    1.14e+00
2006 11 15  0305    54054   11100      0    1.61e+00    0    1.12e+00
2006 11 15  0310    54054   11400      0    1.68e+00    0    1.18e+00
2006 11 15  0315    54054   11700      0    1.65e+00    0    1.17e+00
2006 11 15  0320    54054   12000      0    1.66e+00    0    1.16e+00
2006 11 15  0325    54054   12300      0    1.63e+00    0    1.15e+00
2006 11 15  0330    54054   12600      0    1.62e+00    0    1.13e+00
2006 11 15  0335    54054   12900      0    1.61e+00    0    1.12e+00
2006 11 15  0340    54054   13200      0    1.65e+00    0    1.16e+00
2006 11 15  0345    54054   13500      0    1.63e+00    0    1.15e+00
2006 11 15  0350    54054   13800      0    1.68e+00    0    1.17e+00
2006 11 15  0355    54054   14100      0    1.63e+00    0    1.14e+00
2006 11 15  0400    54054   14400      0    1.64e+00    0    1.15e+00
2006 11 15  0405    54054   14700      0    1.63e+00    0    1.14e+00
2006 11 15  0410    54054   15000      0    1.63e+00    0    1.15e+00
2006 11 15  0415    54054   15300      0    1.65e+00    0    1.16e+00
2006 11 15  0420    54054   15600      0    1.66e+00    0    1.17e+00
2006 11 15  0425    54054   15900      0    1.66e+00    0    1.16e+00
2006 11 15  0430    54054   16200      0    1.64e+00    0    1.15e+00
2006 11 15  0435    54054   16500      0    1.67e+00    0    1.17e+00
2006 11 15  0440    54054   16800      0    1.62e+00    0    1.13e+00
2006 11 15  0445    54054   17100      0    1.65e+00    0    1.15e+00
2006 11 15  0450    54054   17400      0    1.65e+00    0    1.15e+00
2006 11 15  0455    54054   17700      0    1.67e+00    0    1.18e+00
2006 11 15  0500    54054   18000      0    1.60e+00    0    1.10e+00
2006 11 15  0505    54054   18300      0    1.62e+00    0    1.13e+00
2006 11 15  0510    54054   18600      0    1.66e+00    0    1.16e+00
2006 11 15  0515    54054   18900      0    1.60e+00    0    1.13e+00
2006 11 15  0520    54054   19200      0    1.62e+00    0    1.12e+00
2006 11 15  0525    54054   19500      0    1.64e+00    0    1.14e+00
2006 11 15  0530    54054   19800      0    1.68e+00    0    1.17e+00
2006 11 15  0535    54054   20100      0    1.65e+00    0    1.17e+00
2006 11 15  0540    54054   20400      0    1.65e+00    0    1.17e+00
2006 11 15  0545    54054   20700      0    1.65e+00    0    1.16e+00
2006 11 15  0550    54054   21000      0    1.62e+00    0    1.13e+00
2006 11 15  0555    54054   21300      0    1.65e+00    0    1.15e+00
2006 11 15  0600    54054   21600      0    1.65e+00    0    1.15e+00
2006 11 15  0605    54054   21900      0    1.67e+00    0    1.17e+00
2006 11 15  0610    54054   22200      0    1.67e+00    0    1.18e+00
2006 11 15  0615    54054   22500      0    1.61e+00    0    1.13e+00
2006 11 15  0620    54054   22800      0    1.65e+00    0    1.15e+00
2006 11 15  0625    54054   23100      0    1.68e+00    0    1.18e+00
2006 11 15  0630    54054   23400      0    1.69e+00    0    1.19e+00
2006 11 15  0635    54054   23700      0    1.64e+00    0    1.16e+00
2006 11 15  0640    54054   24000      0    1.66e+00    0    1.18e+00
2006 11 15  0645    54054   24300      9   -1.00e+05    9   -1.00e+05
2006 11 15  0650    54054   24600      9   -1.00e+05    9   -1.00e+05
2006 11 15  0655    54054   24900      9   -1.00e+05    9   -1.00e+05
2006 11 15  0700    54054   25200      9   -1.00e+05    9   -1.00e+05
2006 11 15  0705    54054   25500      9   -1.00e+05    9   -1.00e+05
2006 11 15  0710    54054   25800      0    1.68e+00    0    1.18e+00
2006 11 15  0715    54054   26100      0    1.67e+00    0    1.19e+00
2006 11 15  0720    54054   26400      0    1.60e+00    0    1.11e+00
2006 11 15  0725    54054   26700      0    1.60e+00    0    1.11e+00
2006 11 15  0730    54054   27000      0    1.68e+00    0    1.18e+00
2006 11 15  0735    54054   27300      0    1.66e+00    0    1.16e+00
2006 11 15  0740    54054   27600      0    1.64e+00    0    1.16e+00
2006 11 15  0745    54054   27900      0    1.63e+00    0    1.14e+00
2006 11 15  0750    54054   28200      0    1.67e+00    0    1.17e+00
2006 11 15  0755    54054   28500      0    1.63e+00    0    1.15e+00
2006 11 15  0800    54054   28800      0    1.65e+00    0    1.16e+00
2006 11 15  0805    54054   29100      0    1.66e+00    0    1.18e+00
2006 11 15  0810    54054   29400      0    1.67e+00    0    1.16e+00
2006 11 15  0815    54054   29700      0    1.69e+00    0    1.19e+00
2006 11 15  0820    54054   30000      0    1.65e+00    0    1.16e+00
2006 11 15  0825    54054   30300      0    1.66e+00    0    1.16e+00
2006 11 15  0830    54054   30600      0    1.67e+00    0    1.17e+00
2006 11 15  0835    54054   30900      0    1.65e+00    0    1.15e+00
2006 11 15  0840    54054   31200      0    1.67e+00    0    1.16e+00
2006 11 15  0845    54054   31500      0    1.65e+00    0    1.17e+00
2006 11 15  0850    54054   31800      0    1.65e+00    0    1.15e+00
2006 11 15  0855    54054   32100      0    1.66e+00    0    1.16e+00
2006 11 15  0900    54054   32400      0    1.63e+00    0    1.14e+00
2006 11 15  0905    54054   32700      0    1.65e+00    0    1.16e+00
2006 11 15  0910    54054   33000      0    1.63e+00    0    1.13e+00
2006 11 15  0915    54054   33300      0    1.68e+00    0    1.18e+00
2006 11 15  0920    54054   33600      0    1.65e+00    0    1.16e+00
2006 11 15  0925    54054   33900      0    1.62e+00    0    1.13e+00
2006 11 15  0930    54054   34200      0    1.62e+00    0    1.15e+00
2006 11 15  0935    54054   34500      0    1.62e+00    0    1.15e+00
2006 11 15  0940    54054   34800      0    1.61e+00    0    1.13e+00
2006 11 15  0945    54054   35100      0    1.64e+00    0    1.15e+00
2006 11 15  0950    54054   35400      0    1.66e+00    0    1.16e+00
2006 11 15  0955    54054   35700      0    1.63e+00    0    1.14e+00
2006 11 15  1000    54054   36000      0    1.63e+00    0    1.15e+00
2006 11 15  1005    54054   36300      0    1.63e+00    0    1.15e+00
2006 11 15  1010    54054   36600      0    1.65e+00    0    1.16e+00
2006 11 15  1015    54054   36900      0    1.63e+00    0    1.14e+00
2006 11 15  1020    54054   37200      0    1.67e+00    0    1.16e+00
2006 11 15  1025    54054   37500      0    1.64e+00    0    1.15e+00
2006 11 15  1030    54054   37800      0    1.63e+00    0    1.14e+00
2006 11 15  1035    54054   38100      0    1.68e+00    0    1.17e+00
2006 11 15  1040    54054   38400      0    1.64e+00    0    1.14e+00
2006 11 15  1045    54054   38700      0    1.67e+00    0    1.18e+00
2006 11 15  1050    54054   39000      0    1.68e+00    0    1.18e+00
2006 11 15  1055    54054   39300      0    1.66e+00    0    1.17e+00
2006 11 15  1100    54054   39600      0    1.67e+00    0    1.17e+00
2006 11 15  1105    54054   39900      0    1.69e+00    0    1.18e+00
2006 11 15  1110    54054   40200      0    1.63e+00    0    1.15e+00
2006 11 15  1115    54054   40500      0    1.66e+00    0    1.16e+00
2006 11 15  1120    54054   40800      0    1.66e+00    0    1.17e+00
2006 11 15  1125    54054   41100      0    1.66e+00    0    1.15e+00
2006 11 15  1130    54054   41400      0    1.69e+00    0    1.18e+00
2006 11 15  1135    54054   41700      0    1.63e+00    0    1.16e+00
2006 11 15  1140    54054   42000      0    1.63e+00    0    1.14e+00
2006 11 15  1145    54054   42300      0    1.64e+00    0    1.15e+00
2006 11 15  1150    54054   42600      0    1.70e+00    0    1.19e+00
2006 11 15  1155    54054   42900      0    1.67e+00    0    1.18e+00
2006 11 15  1200    54054   43200      0    1.67e+00    0    1.17e+00
2006 11 15  1205    54054   43500      0    1.64e+00    0    1.17e+00
2006 11 15  1210    54054   43800      0    1.60e+00    0    1.12e+00
2006 11 15  1215    54054   44100      0    1.66e+00    0    1.16e+00
2006 11 15  1220    54054   44400      0    1.64e+00    0    1.15e+00
2006 11 15  1225    54054   44700      0    1.66e+00    0    1.17e+00
2006 11 15  1230    54054   45000      0    1.62e+00    0    1.14e+00
2006 11 15  1235    54054   45300      0    1.60e+00    0    1.12e+00
2006 11 15  1240    54054   45600      0    1.64e+00    0    1.16e+00
2006 11 15  1245    54054   45900      0    1.61e+00    0    1.11e+00
2006 11 15  1250    54054   46200      0    1.58e+00    0    1.11e+00
2006 11 15  1255    54054   46500      0    1.63e+00    0    1.15e+00
2006 11 15  1300    54054   46800      0    1.62e+00    0    1.14e+00
2006 11 15  1305    54054   47100      0    1.60e+00    0    1.12e+00
2006 11 15  1310    54054   47400      0    1.61e+00    0    1.12e+00
2006 11 15  1315    54054   47700      0    1.61e+00    0    1.13e+00
2006 11 15  1320    54054   48000      0    1.60e+00    0    1.12e+00
2006 11 15  1325    54054   48300      0    1.63e+00    0    1.14e+00
2006 11 15  1330    54054   48600      0    1.64e+00    0    1.15e+00
2006 11 15  1335    54054   48900      0    1.62e+00    0    1.14e+00
2006 11 15  1340    54054   49200      0    1.64e+00    0    1.15e+00
2006 11 15  1345    54054   49500      0    1.65e+00    0    1.16e+00
2006 11 15  1350    54054   49800      0    1.62e+00    0    1.14e+00
2006 11 15  1355    54054   50100      0    1.60e+00    0    1.13e+00
2006 11 15  1400    54054   50400      0    1.62e+00    0    1.15e+00
2006 11 15  1405    54054   50700      0    1.62e+00    0    1.13e+00
2006 11 15  1410    54054   51000      0    1.64e+00    0    1.15e+00
2006 11 15  1415    54054   51300      0    1.66e+00    0    1.16e+00
2006 11 15  1420    54054   51600      0    1.63e+00    0    1.13e+00
2006 11 15  1425    54054   51900      0    1.64e+00    0    1.16e+00
2006 11 15  1430    54054   52200      0    1.63e+00    0    1.14e+00
2006 11 15  1435    54054   52500      0    1.64e+00    0    1.15e+00
2006 11 15  1440    54054   52800      0    1.61e+00    0    1.11e+00
2006 11 15  1445    54054   53100      0    1.64e+00    0    1.15e+00
2006 11 15  1450    54054   53400      0    1.64e+00    0    1.16e+00
2006 11 15  1455    54054   53700      0    1.65e+00    0    1.16e+00
2006 11 15  1500    54054   54000      0    1.65e+00    0    1.16e+00
2006 11 15  1505    54054   54300      0    1.67e+00    0    1.18e+00
2006 11 15  1510    54054   54600      0    1.62e+00    0    1.14e+00
2006 11 15  1515    54054   54900      0    1.66e+00    0    1.17e+00
2006 11 15  1520    54054   55200      0    1.62e+00    0    1.13e+00
2006 11 15  1525    54054   55500      0    1.64e+00    0    1.16e+00
2006 11 15  1530    54054   55800      0    1.65e+00    0    1.15e+00
2006 11 15  1535    54054   56100      0    1.60e+00    0    1.12e+00
2006 11 15  1540    54054   56400      0    1.65e+00    0    1.15e+00
2006 11 15  1545    54054   56700      0    1.60e+00    0    1.13e+00
2006 11 15  1550    54054   57000      0    1.60e+00    0    1.12e+00
2006 11 15  1555    54054   57300      0    1.64e+00    0    1.14e+00
2006 11 15  1600    54054   57600      0    1.63e+00    0    1.14e+00
2006 11 15  1605    54054   57900      0    1.64e+00    0    1.14e+00
2006 11 15  1610    54054   58200      0    1.64e+00    0    1.15e+00
2006 11 15  1615    54054   58500      0    1.66e+00    0    1.17e+00
2006 11 15  1620    54054   58800      0    1.62e+00    0    1.13e+00
2006 11 15  1625    54054   59100      0    1.66e+00    0    1.16e+00
2006 11 15  1630    54054   59400      0    1.64e+00    0    1.16e+00
2006 11 15  1635    54054   59700      0    1.64e+00    0    1.15e+00
2006 11 15  1640    54054   60000      0    1.66e+00    0    1.15e+00
2006 11 15  1645    54054   60300      0    1.65e+00    0    1.17e+00
2006 11 15  1650    54054   60600      0    1.60e+00    0    1.12e+00
2006 11 15  1655    54054   60900      0    1.64e+00    0    1.15e+00
2006 11 15  1700    54054   61200      0    1.67e+00    0    1.17e+00
2006 11 15  1705    54054   61500      0    1.66e+00    0    1.17e+00
2006 11 15  1710    54054   61800      0    1.65e+00    0    1.15e+00
2006 11 15  1715    54054   62100      0    1.56e+00    0    1.07e+00
2006 11 15  1720    54054   62400      0    1.64e+00    0    1.15e+00
2006 11 15  1725    54054   62700      0    1.66e+00    0    1.15e+00
2006 11 15  1730    54054   63000      0    1.65e+00    0    1.15e+00
2006 11 15  1735    54054   63300      0    1.65e+00    0    1.16e+00
2006 11 15  1740    54054   63600      0    1.64e+00    0    1.15e+00
2006 11 15  1745    54054   63900      0    1.64e+00    0    1.15e+00
2006 11 15  1750    54054   64200      0    1.65e+00    0    1.15e+00
2006 11 15  1755    54054   64500      0    1.66e+00    0    1.16e+00
2006 11 15  1800    54054   64800      0    1.66e+00    0    1.17e+00
2006 11 15  1805    54054   65100      0    1.64e+00    0    1.16e+00
2006 11 15  1810    54054   65400      0    1.66e+00    0    1.16e+00
2006 11 15  1815    54054   65700      0    1.65e+00    0    1.17e+00
2006 11 15  1820    54054   66000      0    1.66e+00    0    1.16e+00
2006 11 15  1825    54054   66300      0    1.65e+00    0    1.16e+00
2006 11 15  1830    54054   66600      0    1.65e+00    0    1.16e+00
2006 11 15  1835    54054   66900      0    1.63e+00    0    1.14e+00
2006 11 15  1840    54054   67200      0    1.63e+00    0    1.13e+00
2006 11 15  1845    54054   67500      0    1.63e+00    0    1.14e+00
2006 11 15  1850    54054   67800      0    1.63e+00    0    1.13e+00
2006 11 15  1855    54054   68100      0    1.65e+00    0    1.16e+00
2006 11 15  1900    54054   68400      0    1.63e+00    0    1.14e+00
2006 11 15  1905    54054   68700      0    1.69e+00    0    1.18e+00
2006 11 15  1910    54054   69000      0    1.66e+00    0    1.18e+00
2006 11 15  1915    54054   69300      0    1.63e+00    0    1.13e+00
2006 11 15  1920    54054   69600      0    1.64e+00    0    1.15e+00
2006 11 15  1925    54054   69900      0    1.67e+00    0    1.18e+00
2006 11 15  1930    54054   70200      0    1.64e+00    0    1.14e+00
2006 11 15  1935    54054   70500      0    1.65e+00    0    1.15e+00
2006 11 15  1940    54054   70800      0    1.66e+00    0    1.15e+00
2006 11 15  1945    54054   71100      0    1.67e+00    0    1.18e+00
2006 11 15  1950    54054   71400      0    1.65e+00    0    1.16e+00
2006 11 15  1955    54054   71700      0    1.69e+00    0    1.18e+00
2006 11 15  2000    54054   72000      0    1.66e+00    0    1.15e+00
2006 11 15  2005    54054   72300      0    1.66e+00    0    1.16e+00
2006 11 15  2010    54054   72600      0    1.63e+00    0    1.15e+00
2006 11 15  2015    54054   72900      0    1.67e+00    0    1.18e+00
2006 11 15  2020    54054   73200      0    1.66e+00    0    1.15e+00
2006 11 15  2025    54054   73500      0    1.63e+00    0    1.16e+00
2006 11 15  2030    54054   73800      0    1.61e+00    0    1.12e+00
2006 11 15  2035    54054   74100      0    1.65e+00    0    1.17e+00
2006 11 15  2040    54054   74400      0    1.66e+00    0    1.18e+00
2006 11 15  2045    54054   74700      0    1.60e+00    0    1.12e+00
2006 11 15  2050    54054   75000      0    1.61e+00    0    1.15e+00
2006 11 15  2055    54054   75300      9   -1.00e+05    9   -1.00e+05
2006 11 15  2100    54054   75600      9   -1.00e+05    9   -1.00e+05
2006 11 15  2105    54054   75900      9   -1.00e+05    9   -1.00e+05
2006 11 15  2110    54054   76200      9   -1.00e+05    9   -1.00e+05
2006 11 15  2115    54054   76500      9   -1.00e+05    9   -1.00e+05
2006 11 15  2120    54054   76800      9   -1.00e+05    9   -1.00e+05
2006 11 15  2125    54054   77100      9   -1.00e+05    9   -1.00e+05
2006 11 15  2130    54054   77400      9   -1.00e+05    9   -1.00e+05
2006 11 15  2135    54054   77700      9   -1.00e+05    9   -1.00e+05
2006 11 15  2140    54054   78000      9   -1.00e+05    9   -1.00e+05
2006 11 15  2145    54054   78300      9   -1.00e+05    9   -1.00e+05
2006 11 15  2150    54054   78600      0    1.63e+00    0    1.11e+00
2006 11 15  2155    54054   78900      0    1.68e+00    0    1.18e+00
2006 11 15  2200    54054   79200      0    1.69e+00    0    1.19e+00
2006 11 15  2205    54054   79500      0    1.67e+00    0    1.16e+00
2006 11 15  2210    54054   79800      0    1.66e+00    0    1.16e+00
2006 11 15  2215    54054   80100      0    1.64e+00    0    1.15e+00
2006 11 15  2220    54054   80400      0    1.71e+00    0    1.20e+00
2006 11 15  2225    54054   80700      0    1.65e+00    0    1.16e+00
2006 11 15  2230    54054   81000      0    1.67e+00    0    1.18e+00
2006 11 15  2235    54054   81300      0    1.66e+00    0    1.16e+00
2006 11 15  2240    54054   81600      0    1.67e+00    0    1.17e+00
2006 11 15  2245    54054   81900      0    1.67e+00    0    1.18e+00
2006 11 15  2250    54054   82200      0    1.65e+00    0    1.16e+00
2006 11 15  2255    54054   82500      0    1.69e+00    0    1.19e+00
2006 11 15  2300    54054   82800      0    1.67e+00    0    1.17e+00
2006 11 15  2305    54054   83100      0    1.69e+00    0    1.19e+00
2006 11 15  2310    54054   83400      0    1.67e+00    0    1.17e+00
2006 11 15  2315    54054   83700      0    1.67e+00    0    1.17e+00
2006 11 15  2320    54054   84000      0    1.68e+00    0    1.18e+00
2006 11 15  2325    54054   84300      0    1.67e+00    0    1.16e+00
2006 11 15  2330    54054   84600      0    1.66e+00    0    1.16e+00
2006 11 15  2335    54054   84900      0    1.68e+00    0    1.18e+00
2006 11 15  2340    54054   85200      0    1.70e+00    0    1.20e+00
2006 11 15  2345    54054   85500      0    1.65e+00    0    1.16e+00
2006 11 15  2350    54054   85800      0    1.70e+00    0    1.21e+00
2006 11 15  2355    54054   86100      0    1.65e+00    0    1.16e+00
