:Data_list: 20061130_ace_sis_5m.txt
:Created: 2006 Dec 01 0011 UT
# Prepared by the U.S. Dept. of Commerce, NOAA, Space Environment Center.
# Please send comments and suggestions to SEC.Webmaster@noaa.gov 
# 
# Units: proton flux p/cs2-sec-ster
# Status(S): 0 = nominal data, 1 to 8 = bad data record, 9 = no data
# Missing data values: -1.00e+05
# Source: ACE Satellite - Solar Isotope Spectrometer
#
# 5-minute averaged Real-time Integral Flux of High-energy Solar Protons
# 
#                 Modified Seconds
# UT Date   Time   Julian  of the      ---- Integral Proton Flux ----
# YR MO DA  HHMM     Day     Day       S    > 10 MeV    S    > 30 MeV
#--------------------------------------------------------------------
2006 11 30  0000    54069       0      0    1.67e+00    0    1.16e+00
2006 11 30  0005    54069     300      0    1.68e+00    0    1.18e+00
2006 11 30  0010    54069     600      0    1.69e+00    0    1.19e+00
2006 11 30  0015    54069     900      0    1.70e+00    0    1.19e+00
2006 11 30  0020    54069    1200      0    1.70e+00    0    1.20e+00
2006 11 30  0025    54069    1500      0    1.68e+00    0    1.18e+00
2006 11 30  0030    54069    1800      0    1.70e+00    0    1.19e+00
2006 11 30  0035    54069    2100      0    1.69e+00    0    1.18e+00
2006 11 30  0040    54069    2400      0    1.70e+00    0    1.18e+00
2006 11 30  0045    54069    2700      0    1.71e+00    0    1.21e+00
2006 11 30  0050    54069    3000      0    1.69e+00    0    1.19e+00
2006 11 30  0055    54069    3300      0    1.70e+00    0    1.19e+00
2006 11 30  0100    54069    3600      0    1.72e+00    0    1.20e+00
2006 11 30  0105    54069    3900      0    1.72e+00    0    1.20e+00
2006 11 30  0110    54069    4200      0    1.73e+00    0    1.22e+00
2006 11 30  0115    54069    4500      0    1.68e+00    0    1.17e+00
2006 11 30  0120    54069    4800      0    1.71e+00    0    1.21e+00
2006 11 30  0125    54069    5100      0    1.70e+00    0    1.20e+00
2006 11 30  0130    54069    5400      0    1.72e+00    0    1.20e+00
2006 11 30  0135    54069    5700      0    1.67e+00    0    1.16e+00
2006 11 30  0140    54069    6000      0    1.70e+00    0    1.20e+00
2006 11 30  0145    54069    6300      0    1.69e+00    0    1.18e+00
2006 11 30  0150    54069    6600      0    1.73e+00    0    1.22e+00
2006 11 30  0155    54069    6900      0    1.70e+00    0    1.20e+00
2006 11 30  0200    54069    7200      0    1.71e+00    0    1.19e+00
2006 11 30  0205    54069    7500      0    1.69e+00    0    1.19e+00
2006 11 30  0210    54069    7800      0    1.68e+00    0    1.17e+00
2006 11 30  0215    54069    8100      0    1.69e+00    0    1.19e+00
2006 11 30  0220    54069    8400      0    1.65e+00    0    1.15e+00
2006 11 30  0225    54069    8700      0    1.66e+00    0    1.17e+00
2006 11 30  0230    54069    9000      0    1.70e+00    0    1.20e+00
2006 11 30  0235    54069    9300      0    1.65e+00    0    1.16e+00
2006 11 30  0240    54069    9600      0    1.67e+00    0    1.17e+00
2006 11 30  0245    54069    9900      0    1.67e+00    0    1.18e+00
2006 11 30  0250    54069   10200      0    1.64e+00    0    1.17e+00
2006 11 30  0255    54069   10500      0    1.68e+00    0    1.17e+00
2006 11 30  0300    54069   10800      0    1.68e+00    0    1.17e+00
2006 11 30  0305    54069   11100      0    1.71e+00    0    1.20e+00
2006 11 30  0310    54069   11400      0    1.70e+00    0    1.20e+00
2006 11 30  0315    54069   11700      0    1.71e+00    0    1.20e+00
2006 11 30  0320    54069   12000      0    1.66e+00    0    1.15e+00
2006 11 30  0325    54069   12300      0    1.70e+00    0    1.19e+00
2006 11 30  0330    54069   12600      0    1.69e+00    0    1.18e+00
2006 11 30  0335    54069   12900      0    1.66e+00    0    1.16e+00
2006 11 30  0340    54069   13200      0    1.76e+00    0    1.23e+00
2006 11 30  0345    54069   13500      0    1.69e+00    0    1.19e+00
2006 11 30  0350    54069   13800      0    1.70e+00    0    1.19e+00
2006 11 30  0355    54069   14100      0    1.68e+00    0    1.17e+00
2006 11 30  0400    54069   14400      0    1.72e+00    0    1.21e+00
2006 11 30  0405    54069   14700      0    1.71e+00    0    1.19e+00
2006 11 30  0410    54069   15000      0    1.68e+00    0    1.18e+00
2006 11 30  0415    54069   15300      0    1.71e+00    0    1.19e+00
2006 11 30  0420    54069   15600      0    1.68e+00    0    1.17e+00
2006 11 30  0425    54069   15900      0    1.73e+00    0    1.22e+00
2006 11 30  0430    54069   16200      0    1.72e+00    0    1.21e+00
2006 11 30  0435    54069   16500      0    1.67e+00    0    1.17e+00
2006 11 30  0440    54069   16800      0    1.72e+00    0    1.20e+00
2006 11 30  0445    54069   17100      0    1.69e+00    0    1.18e+00
2006 11 30  0450    54069   17400      0    1.69e+00    0    1.18e+00
2006 11 30  0455    54069   17700      0    1.69e+00    0    1.19e+00
2006 11 30  0500    54069   18000      0    1.69e+00    0    1.18e+00
2006 11 30  0505    54069   18300      0    1.70e+00    0    1.18e+00
2006 11 30  0510    54069   18600      0    1.72e+00    0    1.19e+00
2006 11 30  0515    54069   18900      0    1.73e+00    0    1.21e+00
2006 11 30  0520    54069   19200      0    1.70e+00    0    1.19e+00
2006 11 30  0525    54069   19500      0    1.67e+00    0    1.18e+00
2006 11 30  0530    54069   19800      0    1.74e+00    0    1.22e+00
2006 11 30  0535    54069   20100      0    1.71e+00    0    1.19e+00
2006 11 30  0540    54069   20400      0    1.70e+00    0    1.20e+00
2006 11 30  0545    54069   20700      0    1.75e+00    0    1.24e+00
2006 11 30  0550    54069   21000      0    1.73e+00    0    1.21e+00
2006 11 30  0555    54069   21300      0    1.73e+00    0    1.20e+00
2006 11 30  0600    54069   21600      0    1.70e+00    0    1.18e+00
2006 11 30  0605    54069   21900      0    1.76e+00    0    1.23e+00
2006 11 30  0610    54069   22200      0    1.73e+00    0    1.21e+00
2006 11 30  0615    54069   22500      0    1.70e+00    0    1.18e+00
2006 11 30  0620    54069   22800      0    1.71e+00    0    1.20e+00
2006 11 30  0625    54069   23100      0    1.75e+00    0    1.23e+00
2006 11 30  0630    54069   23400      0    1.68e+00    0    1.18e+00
2006 11 30  0635    54069   23700      0    1.72e+00    0    1.21e+00
2006 11 30  0640    54069   24000      0    1.68e+00    0    1.17e+00
2006 11 30  0645    54069   24300      0    1.71e+00    0    1.20e+00
2006 11 30  0650    54069   24600      0    1.75e+00    0    1.22e+00
2006 11 30  0655    54069   24900      0    1.70e+00    0    1.19e+00
2006 11 30  0700    54069   25200      0    1.67e+00    0    1.16e+00
2006 11 30  0705    54069   25500      0    1.70e+00    0    1.19e+00
2006 11 30  0710    54069   25800      0    1.70e+00    0    1.20e+00
2006 11 30  0715    54069   26100      0    1.70e+00    0    1.20e+00
2006 11 30  0720    54069   26400      0    1.69e+00    0    1.17e+00
2006 11 30  0725    54069   26700      0    1.70e+00    0    1.19e+00
2006 11 30  0730    54069   27000      0    1.68e+00    0    1.19e+00
2006 11 30  0735    54069   27300      0    1.68e+00    0    1.18e+00
2006 11 30  0740    54069   27600      0    1.70e+00    0    1.18e+00
2006 11 30  0745    54069   27900      0    1.71e+00    0    1.19e+00
2006 11 30  0750    54069   28200      0    1.70e+00    0    1.19e+00
2006 11 30  0755    54069   28500      0    1.68e+00    0    1.19e+00
2006 11 30  0800    54069   28800      0    1.67e+00    0    1.18e+00
2006 11 30  0805    54069   29100      0    1.72e+00    0    1.20e+00
2006 11 30  0810    54069   29400      0    1.68e+00    0    1.18e+00
2006 11 30  0815    54069   29700      0    1.66e+00    0    1.16e+00
2006 11 30  0820    54069   30000      0    1.68e+00    0    1.18e+00
2006 11 30  0825    54069   30300      0    1.69e+00    0    1.18e+00
2006 11 30  0830    54069   30600      0    1.69e+00    0    1.18e+00
2006 11 30  0835    54069   30900      0    1.67e+00    0    1.17e+00
2006 11 30  0840    54069   31200      0    1.65e+00    0    1.17e+00
2006 11 30  0845    54069   31500      0    1.70e+00    0    1.19e+00
2006 11 30  0850    54069   31800      0    1.68e+00    0    1.19e+00
2006 11 30  0855    54069   32100      0    1.73e+00    0    1.23e+00
2006 11 30  0900    54069   32400      0    1.67e+00    0    1.16e+00
2006 11 30  0905    54069   32700      0    1.68e+00    0    1.18e+00
2006 11 30  0910    54069   33000      0    1.69e+00    0    1.18e+00
2006 11 30  0915    54069   33300      0    1.66e+00    0    1.16e+00
2006 11 30  0920    54069   33600      0    1.69e+00    0    1.18e+00
2006 11 30  0925    54069   33900      0    1.71e+00    0    1.20e+00
2006 11 30  0930    54069   34200      0    1.73e+00    0    1.22e+00
2006 11 30  0935    54069   34500      0    1.71e+00    0    1.20e+00
2006 11 30  0940    54069   34800      0    1.72e+00    0    1.20e+00
2006 11 30  0945    54069   35100      0    1.67e+00    0    1.18e+00
2006 11 30  0950    54069   35400      0    1.70e+00    0    1.19e+00
2006 11 30  0955    54069   35700      0    1.75e+00    0    1.24e+00
2006 11 30  1000    54069   36000      0    1.70e+00    0    1.19e+00
2006 11 30  1005    54069   36300      0    1.72e+00    0    1.22e+00
2006 11 30  1010    54069   36600      0    1.70e+00    0    1.20e+00
2006 11 30  1015    54069   36900      0    1.68e+00    0    1.16e+00
2006 11 30  1020    54069   37200      0    1.73e+00    0    1.21e+00
2006 11 30  1025    54069   37500      0    1.71e+00    0    1.20e+00
2006 11 30  1030    54069   37800      0    1.66e+00    0    1.15e+00
2006 11 30  1035    54069   38100      0    1.70e+00    0    1.19e+00
2006 11 30  1040    54069   38400      0    1.72e+00    0    1.20e+00
2006 11 30  1045    54069   38700      0    1.72e+00    0    1.20e+00
2006 11 30  1050    54069   39000      0    1.71e+00    0    1.20e+00
2006 11 30  1055    54069   39300      0    1.78e+00    0    1.24e+00
2006 11 30  1100    54069   39600      0    1.68e+00    0    1.18e+00
2006 11 30  1105    54069   39900      0    1.70e+00    0    1.19e+00
2006 11 30  1110    54069   40200      0    1.70e+00    0    1.20e+00
2006 11 30  1115    54069   40500      0    1.70e+00    0    1.21e+00
2006 11 30  1120    54069   40800      0    1.74e+00    0    1.22e+00
2006 11 30  1125    54069   41100      0    1.73e+00    0    1.21e+00
2006 11 30  1130    54069   41400      0    1.70e+00    0    1.19e+00
2006 11 30  1135    54069   41700      0    1.72e+00    0    1.21e+00
2006 11 30  1140    54069   42000      0    1.69e+00    0    1.19e+00
2006 11 30  1145    54069   42300      0    1.70e+00    0    1.20e+00
2006 11 30  1150    54069   42600      0    1.69e+00    0    1.18e+00
2006 11 30  1155    54069   42900      0    1.71e+00    0    1.20e+00
2006 11 30  1200    54069   43200      0    1.72e+00    0    1.21e+00
2006 11 30  1205    54069   43500      0    1.71e+00    0    1.20e+00
2006 11 30  1210    54069   43800      0    1.69e+00    0    1.19e+00
2006 11 30  1215    54069   44100      0    1.69e+00    0    1.19e+00
2006 11 30  1220    54069   44400      0    1.70e+00    0    1.20e+00
2006 11 30  1225    54069   44700      0    1.73e+00    0    1.22e+00
2006 11 30  1230    54069   45000      0    1.70e+00    0    1.17e+00
2006 11 30  1235    54069   45300      0    1.69e+00    0    1.17e+00
2006 11 30  1240    54069   45600      0    1.71e+00    0    1.21e+00
2006 11 30  1245    54069   45900      0    1.70e+00    0    1.20e+00
2006 11 30  1250    54069   46200      0    1.72e+00    0    1.20e+00
2006 11 30  1255    54069   46500      0    1.74e+00    0    1.22e+00
2006 11 30  1300    54069   46800      0    1.69e+00    0    1.18e+00
2006 11 30  1305    54069   47100      0    1.70e+00    0    1.19e+00
2006 11 30  1310    54069   47400      0    1.69e+00    0    1.18e+00
2006 11 30  1315    54069   47700      0    1.72e+00    0    1.22e+00
2006 11 30  1320    54069   48000      0    1.70e+00    0    1.19e+00
2006 11 30  1325    54069   48300      0    1.71e+00    0    1.19e+00
2006 11 30  1330    54069   48600      0    1.73e+00    0    1.21e+00
2006 11 30  1335    54069   48900      0    1.68e+00    0    1.19e+00
2006 11 30  1340    54069   49200      0    1.69e+00    0    1.18e+00
2006 11 30  1345    54069   49500      0    1.73e+00    0    1.22e+00
2006 11 30  1350    54069   49800      0    1.73e+00    0    1.21e+00
2006 11 30  1355    54069   50100      0    1.70e+00    0    1.18e+00
2006 11 30  1400    54069   50400      0    1.77e+00    0    1.23e+00
2006 11 30  1405    54069   50700      0    1.72e+00    0    1.20e+00
2006 11 30  1410    54069   51000      0    1.68e+00    0    1.19e+00
2006 11 30  1415    54069   51300      0    1.70e+00    0    1.18e+00
2006 11 30  1420    54069   51600      0    1.74e+00    0    1.22e+00
2006 11 30  1425    54069   51900      0    1.73e+00    0    1.20e+00
2006 11 30  1430    54069   52200      0    1.72e+00    0    1.21e+00
2006 11 30  1435    54069   52500      0    1.70e+00    0    1.19e+00
2006 11 30  1440    54069   52800      0    1.75e+00    0    1.23e+00
2006 11 30  1445    54069   53100      0    1.69e+00    0    1.18e+00
2006 11 30  1450    54069   53400      0    1.73e+00    0    1.19e+00
2006 11 30  1455    54069   53700      0    1.74e+00    0    1.22e+00
2006 11 30  1500    54069   54000      0    1.70e+00    0    1.19e+00
2006 11 30  1505    54069   54300      0    1.74e+00    0    1.22e+00
2006 11 30  1510    54069   54600      0    1.71e+00    0    1.20e+00
2006 11 30  1515    54069   54900      0    1.75e+00    0    1.23e+00
2006 11 30  1520    54069   55200      0    1.73e+00    0    1.22e+00
2006 11 30  1525    54069   55500      0    1.77e+00    0    1.24e+00
2006 11 30  1530    54069   55800      0    1.70e+00    0    1.19e+00
2006 11 30  1535    54069   56100      0    1.72e+00    0    1.20e+00
2006 11 30  1540    54069   56400      0    1.74e+00    0    1.24e+00
2006 11 30  1545    54069   56700      0    1.75e+00    0    1.23e+00
2006 11 30  1550    54069   57000      0    1.78e+00    0    1.26e+00
2006 11 30  1555    54069   57300      0    1.75e+00    0    1.23e+00
2006 11 30  1600    54069   57600      0    1.72e+00    0    1.20e+00
2006 11 30  1605    54069   57900      0    1.75e+00    0    1.23e+00
2006 11 30  1610    54069   58200      0    1.75e+00    0    1.23e+00
2006 11 30  1615    54069   58500      0    1.73e+00    0    1.22e+00
2006 11 30  1620    54069   58800      0    1.73e+00    0    1.22e+00
2006 11 30  1625    54069   59100      0    1.70e+00    0    1.20e+00
2006 11 30  1630    54069   59400      0    1.76e+00    0    1.23e+00
2006 11 30  1635    54069   59700      0    1.76e+00    0    1.24e+00
2006 11 30  1640    54069   60000      0    1.77e+00    0    1.24e+00
2006 11 30  1645    54069   60300      0    1.74e+00    0    1.21e+00
2006 11 30  1650    54069   60600      0    1.75e+00    0    1.22e+00
2006 11 30  1655    54069   60900      0    1.72e+00    0    1.20e+00
2006 11 30  1700    54069   61200      0    1.72e+00    0    1.20e+00
2006 11 30  1705    54069   61500      0    1.73e+00    0    1.21e+00
2006 11 30  1710    54069   61800      0    1.77e+00    0    1.24e+00
2006 11 30  1715    54069   62100      0    1.75e+00    0    1.24e+00
2006 11 30  1720    54069   62400      0    1.80e+00    0    1.27e+00
2006 11 30  1725    54069   62700      0    1.79e+00    0    1.26e+00
2006 11 30  1730    54069   63000      0    1.76e+00    0    1.23e+00
2006 11 30  1735    54069   63300      0    1.75e+00    0    1.23e+00
2006 11 30  1740    54069   63600      0    1.75e+00    0    1.22e+00
2006 11 30  1745    54069   63900      0    1.75e+00    0    1.22e+00
2006 11 30  1750    54069   64200      0    1.75e+00    0    1.23e+00
2006 11 30  1755    54069   64500      0    1.80e+00    0    1.25e+00
2006 11 30  1800    54069   64800      0    1.77e+00    0    1.23e+00
2006 11 30  1805    54069   65100      0    1.77e+00    0    1.26e+00
2006 11 30  1810    54069   65400      0    1.68e+00    0    5.07e-01
2006 11 30  1815    54069   65700      0    1.73e+00    0    1.21e+00
2006 11 30  1820    54069   66000      0    1.73e+00    0    1.21e+00
2006 11 30  1825    54069   66300      0    1.71e+00    0    1.20e+00
2006 11 30  1830    54069   66600      0    1.74e+00    0    1.20e+00
2006 11 30  1835    54069   66900      0    1.72e+00    0    1.22e+00
2006 11 30  1840    54069   67200      0    1.75e+00    0    1.23e+00
2006 11 30  1845    54069   67500      0    1.76e+00    0    1.24e+00
2006 11 30  1850    54069   67800      0    1.76e+00    0    1.23e+00
2006 11 30  1855    54069   68100      0    1.73e+00    0    1.21e+00
2006 11 30  1900    54069   68400      0    1.75e+00    0    1.22e+00
2006 11 30  1905    54069   68700      0    1.74e+00    0    1.22e+00
2006 11 30  1910    54069   69000      0    1.77e+00    0    1.25e+00
2006 11 30  1915    54069   69300      0    1.76e+00    0    1.24e+00
2006 11 30  1920    54069   69600      0    1.74e+00    0    1.22e+00
2006 11 30  1925    54069   69900      0    1.79e+00    0    1.26e+00
2006 11 30  1930    54069   70200      0    1.74e+00    0    1.22e+00
2006 11 30  1935    54069   70500      0    1.73e+00    0    1.21e+00
2006 11 30  1940    54069   70800      0    1.75e+00    0    1.23e+00
2006 11 30  1945    54069   71100      0    1.77e+00    0    1.25e+00
2006 11 30  1950    54069   71400      0    1.77e+00    0    1.24e+00
2006 11 30  1955    54069   71700      0    1.73e+00    0    1.21e+00
2006 11 30  2000    54069   72000      0    1.77e+00    0    1.23e+00
2006 11 30  2005    54069   72300      0    1.78e+00    0    1.23e+00
2006 11 30  2010    54069   72600      0    1.66e+00    0    1.17e+00
2006 11 30  2015    54069   72900      0    1.75e+00    0    1.23e+00
2006 11 30  2020    54069   73200      0    1.72e+00    0    1.20e+00
2006 11 30  2025    54069   73500      0    1.75e+00    0    1.22e+00
2006 11 30  2030    54069   73800      0    1.76e+00    0    1.24e+00
2006 11 30  2035    54069   74100      0    1.74e+00    0    1.22e+00
2006 11 30  2040    54069   74400      0    1.77e+00    0    1.24e+00
2006 11 30  2045    54069   74700      0    1.76e+00    0    1.23e+00
2006 11 30  2050    54069   75000      9   -1.00e+05    9   -1.00e+05
2006 11 30  2055    54069   75300      9   -1.00e+05    9   -1.00e+05
2006 11 30  2100    54069   75600      9   -1.00e+05    9   -1.00e+05
2006 11 30  2105    54069   75900      9   -1.00e+05    9   -1.00e+05
2006 11 30  2110    54069   76200      9   -1.00e+05    9   -1.00e+05
2006 11 30  2115    54069   76500      9   -1.00e+05    9   -1.00e+05
2006 11 30  2120    54069   76800      9   -1.00e+05    9   -1.00e+05
2006 11 30  2125    54069   77100      9   -1.00e+05    9   -1.00e+05
2006 11 30  2130    54069   77400      9   -1.00e+05    9   -1.00e+05
2006 11 30  2135    54069   77700      0    1.71e+00    0    1.20e+00
2006 11 30  2140    54069   78000      0    1.72e+00    0    1.22e+00
2006 11 30  2145    54069   78300      0    1.72e+00    0    1.20e+00
2006 11 30  2150    54069   78600      0    1.73e+00    0    1.20e+00
2006 11 30  2155    54069   78900      0    1.72e+00    0    1.20e+00
2006 11 30  2200    54069   79200      0    1.76e+00    0    1.22e+00
2006 11 30  2205    54069   79500      0    1.73e+00    0    1.21e+00
2006 11 30  2210    54069   79800      0    1.72e+00    0    1.18e+00
2006 11 30  2215    54069   80100      0    1.73e+00    0    1.21e+00
2006 11 30  2220    54069   80400      0    1.74e+00    0    1.22e+00
2006 11 30  2225    54069   80700      0    1.74e+00    0    1.22e+00
2006 11 30  2230    54069   81000      0    1.70e+00    0    1.19e+00
2006 11 30  2235    54069   81300      0    1.75e+00    0    1.22e+00
2006 11 30  2240    54069   81600      0    1.73e+00    0    1.22e+00
2006 11 30  2245    54069   81900      0    1.70e+00    0    1.18e+00
2006 11 30  2250    54069   82200      0    1.74e+00    0    1.22e+00
2006 11 30  2255    54069   82500      0    1.72e+00    0    1.21e+00
2006 11 30  2300    54069   82800      0    1.72e+00    0    1.19e+00
2006 11 30  2305    54069   83100      0    1.75e+00    0    1.22e+00
2006 11 30  2310    54069   83400      0    1.72e+00    0    1.22e+00
2006 11 30  2315    54069   83700      0    1.73e+00    0    1.21e+00
2006 11 30  2320    54069   84000      0    1.73e+00    0    1.21e+00
2006 11 30  2325    54069   84300      0    1.76e+00    0    1.23e+00
2006 11 30  2330    54069   84600      0    1.73e+00    0    1.21e+00
2006 11 30  2335    54069   84900      0    1.73e+00    0    1.21e+00
2006 11 30  2340    54069   85200      0    1.75e+00    0    1.22e+00
2006 11 30  2345    54069   85500      0    1.69e+00    0    1.18e+00
2006 11 30  2350    54069   85800      0    1.74e+00    0    1.22e+00
2006 11 30  2355    54069   86100      0    1.73e+00    0    1.23e+00
