:Data_list: 20061030_ace_sis_5m.txt
:Created: 2006 Oct 31 0011 UT
# Prepared by the U.S. Dept. of Commerce, NOAA, Space Environment Center.
# Please send comments and suggestions to SEC.Webmaster@noaa.gov 
# 
# Units: proton flux p/cs2-sec-ster
# Status(S): 0 = nominal data, 1 to 8 = bad data record, 9 = no data
# Missing data values: -1.00e+05
# Source: ACE Satellite - Solar Isotope Spectrometer
#
# 5-minute averaged Real-time Integral Flux of High-energy Solar Protons
# 
#                 Modified Seconds
# UT Date   Time   Julian  of the      ---- Integral Proton Flux ----
# YR MO DA  HHMM     Day     Day       S    > 10 MeV    S    > 30 MeV
#--------------------------------------------------------------------
2006 10 30  0000    54038       0      0    1.66e+00    0    1.16e+00
2006 10 30  0005    54038     300      0    1.71e+00    0    1.20e+00
2006 10 30  0010    54038     600      0    1.73e+00    0    1.22e+00
2006 10 30  0015    54038     900      0    1.69e+00    0    1.18e+00
2006 10 30  0020    54038    1200      0    1.72e+00    0    1.21e+00
2006 10 30  0025    54038    1500      0    1.68e+00    0    1.18e+00
2006 10 30  0030    54038    1800      0    1.67e+00    0    1.17e+00
2006 10 30  0035    54038    2100      0    1.68e+00    0    1.18e+00
2006 10 30  0040    54038    2400      0    1.68e+00    0    1.17e+00
2006 10 30  0045    54038    2700      0    1.69e+00    0    1.20e+00
2006 10 30  0050    54038    3000      0    1.73e+00    0    1.21e+00
2006 10 30  0055    54038    3300      0    1.67e+00    0    1.17e+00
2006 10 30  0100    54038    3600      0    1.70e+00    0    1.19e+00
2006 10 30  0105    54038    3900      0    1.67e+00    0    1.17e+00
2006 10 30  0110    54038    4200      0    1.72e+00    0    1.22e+00
2006 10 30  0115    54038    4500      0    1.71e+00    0    1.21e+00
2006 10 30  0120    54038    4800      0    1.72e+00    0    1.19e+00
2006 10 30  0125    54038    5100      0    1.73e+00    0    1.21e+00
2006 10 30  0130    54038    5400      0    1.69e+00    0    1.19e+00
2006 10 30  0135    54038    5700      0    1.73e+00    0    1.21e+00
2006 10 30  0140    54038    6000      0    1.70e+00    0    1.18e+00
2006 10 30  0145    54038    6300      0    1.70e+00    0    1.21e+00
2006 10 30  0150    54038    6600      0    1.73e+00    0    1.21e+00
2006 10 30  0155    54038    6900      0    1.70e+00    0    1.19e+00
2006 10 30  0200    54038    7200      0    1.68e+00    0    1.18e+00
2006 10 30  0205    54038    7500      0    1.68e+00    0    1.18e+00
2006 10 30  0210    54038    7800      0    1.68e+00    0    1.19e+00
2006 10 30  0215    54038    8100      0    1.70e+00    0    1.19e+00
2006 10 30  0220    54038    8400      0    1.73e+00    0    1.22e+00
2006 10 30  0225    54038    8700      0    1.69e+00    0    1.19e+00
2006 10 30  0230    54038    9000      0    1.66e+00    0    1.15e+00
2006 10 30  0235    54038    9300      0    1.69e+00    0    1.18e+00
2006 10 30  0240    54038    9600      0    1.66e+00    0    1.16e+00
2006 10 30  0245    54038    9900      0    1.67e+00    0    1.16e+00
2006 10 30  0250    54038   10200      0    1.63e+00    0    1.15e+00
2006 10 30  0255    54038   10500      0    1.64e+00    0    1.14e+00
2006 10 30  0300    54038   10800      0    1.66e+00    0    1.16e+00
2006 10 30  0305    54038   11100      0    1.64e+00    0    1.15e+00
2006 10 30  0310    54038   11400      0    1.68e+00    0    1.18e+00
2006 10 30  0315    54038   11700      0    1.67e+00    0    1.17e+00
2006 10 30  0320    54038   12000      0    1.68e+00    0    1.18e+00
2006 10 30  0325    54038   12300      0    1.67e+00    0    1.16e+00
2006 10 30  0330    54038   12600      0    1.65e+00    0    1.16e+00
2006 10 30  0335    54038   12900      0    1.70e+00    0    1.19e+00
2006 10 30  0340    54038   13200      0    1.67e+00    0    1.17e+00
2006 10 30  0345    54038   13500      0    1.68e+00    0    1.18e+00
2006 10 30  0350    54038   13800      0    1.63e+00    0    1.16e+00
2006 10 30  0355    54038   14100      0    1.71e+00    0    1.19e+00
2006 10 30  0400    54038   14400      0    1.73e+00    0    1.22e+00
2006 10 30  0405    54038   14700      0    1.70e+00    0    1.19e+00
2006 10 30  0410    54038   15000      0    1.71e+00    0    1.20e+00
2006 10 30  0415    54038   15300      0    1.70e+00    0    1.19e+00
2006 10 30  0420    54038   15600      0    1.68e+00    0    1.18e+00
2006 10 30  0425    54038   15900      0    1.71e+00    0    1.20e+00
2006 10 30  0430    54038   16200      0    1.68e+00    0    1.19e+00
2006 10 30  0435    54038   16500      0    1.68e+00    0    1.18e+00
2006 10 30  0440    54038   16800      0    1.65e+00    0    1.15e+00
2006 10 30  0445    54038   17100      0    1.68e+00    0    1.19e+00
2006 10 30  0450    54038   17400      0    1.66e+00    0    1.16e+00
2006 10 30  0455    54038   17700      0    1.64e+00    0    1.15e+00
2006 10 30  0500    54038   18000      0    1.67e+00    0    1.16e+00
2006 10 30  0505    54038   18300      0    1.66e+00    0    1.16e+00
2006 10 30  0510    54038   18600      0    1.67e+00    0    1.16e+00
2006 10 30  0515    54038   18900      0    1.67e+00    0    1.18e+00
2006 10 30  0520    54038   19200      0    1.68e+00    0    1.17e+00
2006 10 30  0525    54038   19500      0    1.65e+00    0    1.16e+00
2006 10 30  0530    54038   19800      0    1.65e+00    0    1.16e+00
2006 10 30  0535    54038   20100      0    1.66e+00    0    1.15e+00
2006 10 30  0540    54038   20400      0    1.68e+00    0    1.18e+00
2006 10 30  0545    54038   20700      0    1.71e+00    0    1.20e+00
2006 10 30  0550    54038   21000      0    1.68e+00    0    1.19e+00
2006 10 30  0555    54038   21300      0    1.70e+00    0    1.19e+00
2006 10 30  0600    54038   21600      0    1.65e+00    0    1.15e+00
2006 10 30  0605    54038   21900      0    1.67e+00    0    1.18e+00
2006 10 30  0610    54038   22200      0    1.64e+00    0    1.15e+00
2006 10 30  0615    54038   22500      0    1.68e+00    0    1.18e+00
2006 10 30  0620    54038   22800      0    1.70e+00    0    1.19e+00
2006 10 30  0625    54038   23100      0    1.68e+00    0    1.18e+00
2006 10 30  0630    54038   23400      0    1.67e+00    0    1.17e+00
2006 10 30  0635    54038   23700      0    1.67e+00    0    1.18e+00
2006 10 30  0640    54038   24000      0    1.68e+00    0    1.18e+00
2006 10 30  0645    54038   24300      0    1.69e+00    0    1.18e+00
2006 10 30  0650    54038   24600      0    1.70e+00    0    1.20e+00
2006 10 30  0655    54038   24900      0    1.68e+00    0    1.19e+00
2006 10 30  0700    54038   25200      0    1.65e+00    0    1.16e+00
2006 10 30  0705    54038   25500      0    1.68e+00    0    1.18e+00
2006 10 30  0710    54038   25800      0    1.69e+00    0    1.19e+00
2006 10 30  0715    54038   26100      0    1.66e+00    0    1.16e+00
2006 10 30  0720    54038   26400      0    1.64e+00    0    1.14e+00
2006 10 30  0725    54038   26700      0    1.64e+00    0    1.15e+00
2006 10 30  0730    54038   27000      0    1.70e+00    0    1.19e+00
2006 10 30  0735    54038   27300      0    1.67e+00    0    1.17e+00
2006 10 30  0740    54038   27600      0    1.69e+00    0    1.18e+00
2006 10 30  0745    54038   27900      0    1.65e+00    0    1.17e+00
2006 10 30  0750    54038   28200      0    1.67e+00    0    1.16e+00
2006 10 30  0755    54038   28500      0    1.69e+00    0    1.20e+00
2006 10 30  0800    54038   28800      0    1.68e+00    0    1.17e+00
2006 10 30  0805    54038   29100      0    1.66e+00    0    1.17e+00
2006 10 30  0810    54038   29400      0    1.61e+00    0    1.14e+00
2006 10 30  0815    54038   29700      0    1.70e+00    0    1.19e+00
2006 10 30  0820    54038   30000      0    1.65e+00    0    1.16e+00
2006 10 30  0825    54038   30300      0    1.68e+00    0    1.17e+00
2006 10 30  0830    54038   30600      0    1.67e+00    0    1.17e+00
2006 10 30  0835    54038   30900      0    1.68e+00    0    1.17e+00
2006 10 30  0840    54038   31200      0    1.67e+00    0    1.17e+00
2006 10 30  0845    54038   31500      0    1.71e+00    0    1.19e+00
2006 10 30  0850    54038   31800      0    1.67e+00    0    1.17e+00
2006 10 30  0855    54038   32100      0    1.67e+00    0    1.17e+00
2006 10 30  0900    54038   32400      0    1.69e+00    0    1.19e+00
2006 10 30  0905    54038   32700      0    1.65e+00    0    1.16e+00
2006 10 30  0910    54038   33000      0    1.57e+00    0    1.10e+00
2006 10 30  0915    54038   33300      0    1.69e+00    0    1.18e+00
2006 10 30  0920    54038   33600      0    1.66e+00    0    1.16e+00
2006 10 30  0925    54038   33900      0    1.67e+00    0    1.17e+00
2006 10 30  0930    54038   34200      0    1.67e+00    0    1.17e+00
2006 10 30  0935    54038   34500      0    1.69e+00    0    1.19e+00
2006 10 30  0940    54038   34800      0    1.66e+00    0    1.16e+00
2006 10 30  0945    54038   35100      0    1.69e+00    0    1.18e+00
2006 10 30  0950    54038   35400      0    1.69e+00    0    1.19e+00
2006 10 30  0955    54038   35700      0    1.66e+00    0    1.17e+00
2006 10 30  1000    54038   36000      0    1.68e+00    0    1.19e+00
2006 10 30  1005    54038   36300      0    1.67e+00    0    1.16e+00
2006 10 30  1010    54038   36600      0    1.65e+00    0    1.16e+00
2006 10 30  1015    54038   36900      0    1.68e+00    0    1.18e+00
2006 10 30  1020    54038   37200      0    1.67e+00    0    1.16e+00
2006 10 30  1025    54038   37500      0    1.65e+00    0    1.16e+00
2006 10 30  1030    54038   37800      0    1.66e+00    0    1.16e+00
2006 10 30  1035    54038   38100      0    1.67e+00    0    1.18e+00
2006 10 30  1040    54038   38400      0    1.66e+00    0    1.17e+00
2006 10 30  1045    54038   38700      0    1.68e+00    0    1.17e+00
2006 10 30  1050    54038   39000      0    1.63e+00    0    1.13e+00
2006 10 30  1055    54038   39300      0    1.70e+00    0    1.19e+00
2006 10 30  1100    54038   39600      0    1.66e+00    0    1.15e+00
2006 10 30  1105    54038   39900      0    1.68e+00    0    1.17e+00
2006 10 30  1110    54038   40200      0    1.67e+00    0    1.16e+00
2006 10 30  1115    54038   40500      0    1.68e+00    0    1.18e+00
2006 10 30  1120    54038   40800      0    1.69e+00    0    1.19e+00
2006 10 30  1125    54038   41100      0    1.67e+00    0    1.18e+00
2006 10 30  1130    54038   41400      0    1.67e+00    0    1.17e+00
2006 10 30  1135    54038   41700      0    1.70e+00    0    1.19e+00
2006 10 30  1140    54038   42000      0    1.65e+00    0    1.16e+00
2006 10 30  1145    54038   42300      0    1.69e+00    0    1.18e+00
2006 10 30  1150    54038   42600      0    1.70e+00    0    1.19e+00
2006 10 30  1155    54038   42900      0    1.68e+00    0    1.18e+00
2006 10 30  1200    54038   43200      0    1.68e+00    0    1.17e+00
2006 10 30  1205    54038   43500      0    1.69e+00    0    1.19e+00
2006 10 30  1210    54038   43800      0    1.68e+00    0    1.18e+00
2006 10 30  1215    54038   44100      0    1.68e+00    0    1.17e+00
2006 10 30  1220    54038   44400      0    1.73e+00    0    1.21e+00
2006 10 30  1225    54038   44700      0    1.65e+00    0    1.16e+00
2006 10 30  1230    54038   45000      0    1.69e+00    0    1.19e+00
2006 10 30  1235    54038   45300      0    1.66e+00    0    1.16e+00
2006 10 30  1240    54038   45600      0    1.69e+00    0    1.17e+00
2006 10 30  1245    54038   45900      0    1.67e+00    0    1.18e+00
2006 10 30  1250    54038   46200      0    1.73e+00    0    1.20e+00
2006 10 30  1255    54038   46500      0    1.70e+00    0    1.19e+00
2006 10 30  1300    54038   46800      0    1.69e+00    0    1.18e+00
2006 10 30  1305    54038   47100      0    1.69e+00    0    1.18e+00
2006 10 30  1310    54038   47400      0    1.68e+00    0    1.17e+00
2006 10 30  1315    54038   47700      0    1.70e+00    0    1.19e+00
2006 10 30  1320    54038   48000      0    1.70e+00    0    1.20e+00
2006 10 30  1325    54038   48300      0    1.68e+00    0    1.19e+00
2006 10 30  1330    54038   48600      0    1.70e+00    0    1.20e+00
2006 10 30  1335    54038   48900      0    1.70e+00    0    1.19e+00
2006 10 30  1340    54038   49200      0    1.71e+00    0    1.19e+00
2006 10 30  1345    54038   49500      0    1.70e+00    0    1.19e+00
2006 10 30  1350    54038   49800      0    1.69e+00    0    1.19e+00
2006 10 30  1355    54038   50100      0    1.70e+00    0    1.20e+00
2006 10 30  1400    54038   50400      0    1.67e+00    0    1.18e+00
2006 10 30  1405    54038   50700      0    1.68e+00    0    1.17e+00
2006 10 30  1410    54038   51000      0    1.67e+00    0    1.17e+00
2006 10 30  1415    54038   51300      0    1.74e+00    0    1.22e+00
2006 10 30  1420    54038   51600      0    1.68e+00    0    1.16e+00
2006 10 30  1425    54038   51900      0    1.70e+00    0    1.18e+00
2006 10 30  1430    54038   52200      0    1.68e+00    0    1.18e+00
2006 10 30  1435    54038   52500      0    1.68e+00    0    1.18e+00
2006 10 30  1440    54038   52800      0    1.73e+00    0    1.22e+00
2006 10 30  1445    54038   53100      0    1.70e+00    0    1.18e+00
2006 10 30  1450    54038   53400      0    1.65e+00    0    1.16e+00
2006 10 30  1455    54038   53700      0    1.72e+00    0    1.19e+00
2006 10 30  1500    54038   54000      0    1.69e+00    0    1.19e+00
2006 10 30  1505    54038   54300      0    1.72e+00    0    1.20e+00
2006 10 30  1510    54038   54600      0    1.61e+00    0    1.13e+00
2006 10 30  1515    54038   54900      0    1.69e+00    0    1.19e+00
2006 10 30  1520    54038   55200      0    1.67e+00    0    1.16e+00
2006 10 30  1525    54038   55500      0    1.69e+00    0    1.18e+00
2006 10 30  1530    54038   55800      0    1.67e+00    0    1.17e+00
2006 10 30  1535    54038   56100      0    1.70e+00    0    1.18e+00
2006 10 30  1540    54038   56400      0    1.69e+00    0    1.18e+00
2006 10 30  1545    54038   56700      0    1.71e+00    0    1.21e+00
2006 10 30  1550    54038   57000      0    1.69e+00    0    1.19e+00
2006 10 30  1555    54038   57300      0    1.67e+00    0    1.18e+00
2006 10 30  1600    54038   57600      0    1.69e+00    0    1.20e+00
2006 10 30  1605    54038   57900      0    1.69e+00    0    1.19e+00
2006 10 30  1610    54038   58200      0    1.71e+00    0    1.20e+00
2006 10 30  1615    54038   58500      0    1.70e+00    0    1.20e+00
2006 10 30  1620    54038   58800      0    1.68e+00    0    1.18e+00
2006 10 30  1625    54038   59100      0    1.71e+00    0    1.21e+00
2006 10 30  1630    54038   59400      0    1.67e+00    0    1.17e+00
2006 10 30  1635    54038   59700      0    1.64e+00    0    1.16e+00
2006 10 30  1640    54038   60000      0    1.69e+00    0    1.17e+00
2006 10 30  1645    54038   60300      0    1.72e+00    0    1.21e+00
2006 10 30  1650    54038   60600      0    1.72e+00    0    1.22e+00
2006 10 30  1655    54038   60900      0    1.68e+00    0    1.18e+00
2006 10 30  1700    54038   61200      0    1.69e+00    0    1.19e+00
2006 10 30  1705    54038   61500      0    1.70e+00    0    1.20e+00
2006 10 30  1710    54038   61800      0    1.72e+00    0    1.20e+00
2006 10 30  1715    54038   62100      0    1.71e+00    0    1.20e+00
2006 10 30  1720    54038   62400      0    1.67e+00    0    1.17e+00
2006 10 30  1725    54038   62700      0    1.70e+00    0    1.19e+00
2006 10 30  1730    54038   63000      0    1.67e+00    0    1.17e+00
2006 10 30  1735    54038   63300      0    1.72e+00    0    1.21e+00
2006 10 30  1740    54038   63600      0    1.69e+00    0    1.19e+00
2006 10 30  1745    54038   63900      0    1.69e+00    0    1.19e+00
2006 10 30  1750    54038   64200      0    1.70e+00    0    1.19e+00
2006 10 30  1755    54038   64500      0    1.64e+00    0    1.14e+00
2006 10 30  1800    54038   64800      0    1.67e+00    0    1.17e+00
2006 10 30  1805    54038   65100      0    1.69e+00    0    1.18e+00
2006 10 30  1810    54038   65400      0    1.71e+00    0    1.20e+00
2006 10 30  1815    54038   65700      0    1.70e+00    0    1.20e+00
2006 10 30  1820    54038   66000      0    1.71e+00    0    1.19e+00
2006 10 30  1825    54038   66300      0    1.68e+00    0    1.18e+00
2006 10 30  1830    54038   66600      0    1.71e+00    0    1.20e+00
2006 10 30  1835    54038   66900      0    1.68e+00    0    1.16e+00
2006 10 30  1840    54038   67200      0    1.70e+00    0    1.19e+00
2006 10 30  1845    54038   67500      0    1.73e+00    0    1.21e+00
2006 10 30  1850    54038   67800      0    1.70e+00    0    1.20e+00
2006 10 30  1855    54038   68100      0    1.69e+00    0    1.18e+00
2006 10 30  1900    54038   68400      0    1.70e+00    0    1.20e+00
2006 10 30  1905    54038   68700      0    1.67e+00    0    1.17e+00
2006 10 30  1910    54038   69000      0    1.68e+00    0    1.18e+00
2006 10 30  1915    54038   69300      0    1.68e+00    0    1.17e+00
2006 10 30  1920    54038   69600      0    1.68e+00    0    1.17e+00
2006 10 30  1925    54038   69900      0    1.72e+00    0    1.19e+00
2006 10 30  1930    54038   70200      0    1.71e+00    0    1.21e+00
2006 10 30  1935    54038   70500      0    1.70e+00    0    1.20e+00
2006 10 30  1940    54038   70800      0    1.72e+00    0    1.21e+00
2006 10 30  1945    54038   71100      0    1.71e+00    0    1.19e+00
2006 10 30  1950    54038   71400      0    1.70e+00    0    1.19e+00
2006 10 30  1955    54038   71700      0    1.73e+00    0    1.21e+00
2006 10 30  2000    54038   72000      0    1.71e+00    0    1.20e+00
2006 10 30  2005    54038   72300      0    1.69e+00    0    1.19e+00
2006 10 30  2010    54038   72600      0    1.69e+00    0    1.19e+00
2006 10 30  2015    54038   72900      0    1.71e+00    0    1.19e+00
2006 10 30  2020    54038   73200      0    1.69e+00    0    1.18e+00
2006 10 30  2025    54038   73500      0    1.71e+00    0    1.20e+00
2006 10 30  2030    54038   73800      0    1.72e+00    0    1.21e+00
2006 10 30  2035    54038   74100      0    1.71e+00    0    1.19e+00
2006 10 30  2040    54038   74400      0    1.70e+00    0    1.19e+00
2006 10 30  2045    54038   74700      0    1.69e+00    0    1.19e+00
2006 10 30  2050    54038   75000      0    1.68e+00    0    1.18e+00
2006 10 30  2055    54038   75300      0    1.68e+00    0    1.17e+00
2006 10 30  2100    54038   75600      0    1.68e+00    0    1.18e+00
2006 10 30  2105    54038   75900      0    1.73e+00    0    1.22e+00
2006 10 30  2110    54038   76200      0    1.68e+00    0    1.18e+00
2006 10 30  2115    54038   76500      0    1.72e+00    0    1.20e+00
2006 10 30  2120    54038   76800      0    1.71e+00    0    1.20e+00
2006 10 30  2125    54038   77100      0    1.71e+00    0    1.19e+00
2006 10 30  2130    54038   77400      0    1.70e+00    0    1.20e+00
2006 10 30  2135    54038   77700      0    1.71e+00    0    1.19e+00
2006 10 30  2140    54038   78000      0    1.72e+00    0    1.21e+00
2006 10 30  2145    54038   78300      0    1.71e+00    0    1.19e+00
2006 10 30  2150    54038   78600      0    1.73e+00    0    1.21e+00
2006 10 30  2155    54038   78900      0    1.73e+00    0    1.20e+00
2006 10 30  2200    54038   79200      0    1.71e+00    0    1.19e+00
2006 10 30  2205    54038   79500      0    1.71e+00    0    1.22e+00
2006 10 30  2210    54038   79800      0    1.71e+00    0    1.21e+00
2006 10 30  2215    54038   80100      0    1.72e+00    0    1.21e+00
2006 10 30  2220    54038   80400      0    1.74e+00    0    1.22e+00
2006 10 30  2225    54038   80700      0    1.69e+00    0    1.17e+00
2006 10 30  2230    54038   81000      0    1.72e+00    0    1.20e+00
2006 10 30  2235    54038   81300      0    1.69e+00    0    1.18e+00
2006 10 30  2240    54038   81600      0    1.73e+00    0    1.23e+00
2006 10 30  2245    54038   81900      0    1.72e+00    0    1.20e+00
2006 10 30  2250    54038   82200      0    1.71e+00    0    1.20e+00
2006 10 30  2255    54038   82500      0    1.69e+00    0    1.19e+00
2006 10 30  2300    54038   82800      0    1.68e+00    0    1.16e+00
2006 10 30  2305    54038   83100      0    1.68e+00    0    1.19e+00
2006 10 30  2310    54038   83400      0    1.70e+00    0    1.20e+00
2006 10 30  2315    54038   83700      0    1.70e+00    0    1.19e+00
2006 10 30  2320    54038   84000      0    1.70e+00    0    1.19e+00
2006 10 30  2325    54038   84300      0    1.71e+00    0    1.19e+00
2006 10 30  2330    54038   84600      0    1.74e+00    0    1.23e+00
2006 10 30  2335    54038   84900      0    1.71e+00    0    1.19e+00
2006 10 30  2340    54038   85200      0    1.67e+00    0    1.17e+00
2006 10 30  2345    54038   85500      0    1.69e+00    0    1.19e+00
2006 10 30  2350    54038   85800      0    1.71e+00    0    1.19e+00
2006 10 30  2355    54038   86100      0    1.74e+00    0    1.22e+00
