:Data_list: 20060214_ace_sis_5m.txt
:Created: 2006 Feb 15 0011 UT
# Prepared by the U.S. Dept. of Commerce, NOAA, Space Environment Center.
# Please send comments and suggestions to SEC.Webmaster@noaa.gov 
# 
# Units: proton flux p/cs2-sec-ster
# Status(S): 0 = nominal data, 1 to 8 = bad data record, 9 = no data
# Missing data values: -1.00e+05
# Source: ACE Satellite - Solar Isotope Spectrometer
#
# 5-minute averaged Real-time Integral Flux of High-energy Solar Protons
# 
#                 Modified Seconds
# UT Date   Time   Julian  of the      ---- Integral Proton Flux ----
# YR MO DA  HHMM     Day     Day       S    > 10 MeV    S    > 30 MeV
#--------------------------------------------------------------------
2006 02 14  0000    53780       0      0    1.44e+00    0    1.01e+00
2006 02 14  0005    53780     300      0    1.47e+00    0    1.03e+00
2006 02 14  0010    53780     600      0    1.47e+00    0    1.04e+00
2006 02 14  0015    53780     900      0    1.44e+00    0    1.01e+00
2006 02 14  0020    53780    1200      0    1.46e+00    0    1.03e+00
2006 02 14  0025    53780    1500      0    1.46e+00    0    1.02e+00
2006 02 14  0030    53780    1800      0    1.49e+00    0    1.05e+00
2006 02 14  0035    53780    2100      0    1.46e+00    0    1.03e+00
2006 02 14  0040    53780    2400      0    1.46e+00    0    1.01e+00
2006 02 14  0045    53780    2700      0    1.46e+00    0    1.02e+00
2006 02 14  0050    53780    3000      0    1.44e+00    0    1.01e+00
2006 02 14  0055    53780    3300      0    1.48e+00    0    1.05e+00
2006 02 14  0100    53780    3600      0    1.47e+00    0    1.03e+00
2006 02 14  0105    53780    3900      0    1.46e+00    0    1.03e+00
2006 02 14  0110    53780    4200      0    1.46e+00    0    1.04e+00
2006 02 14  0115    53780    4500      0    1.48e+00    0    1.04e+00
2006 02 14  0120    53780    4800      0    1.45e+00    0    1.01e+00
2006 02 14  0125    53780    5100      0    1.45e+00    0    1.02e+00
2006 02 14  0130    53780    5400      0    1.45e+00    0    1.03e+00
2006 02 14  0135    53780    5700      0    1.42e+00    0    1.00e+00
2006 02 14  0140    53780    6000      0    1.47e+00    0    1.04e+00
2006 02 14  0145    53780    6300      0    1.45e+00    0    1.01e+00
2006 02 14  0150    53780    6600      0    1.43e+00    0    1.00e+00
2006 02 14  0155    53780    6900      0    1.44e+00    0    1.01e+00
2006 02 14  0200    53780    7200      0    1.49e+00    0    1.05e+00
2006 02 14  0205    53780    7500      0    1.47e+00    0    1.03e+00
2006 02 14  0210    53780    7800      0    1.46e+00    0    1.02e+00
2006 02 14  0215    53780    8100      0    1.46e+00    0    1.03e+00
2006 02 14  0220    53780    8400      0    1.44e+00    0    1.01e+00
2006 02 14  0225    53780    8700      0    1.47e+00    0    1.04e+00
2006 02 14  0230    53780    9000      0    1.45e+00    0    1.02e+00
2006 02 14  0235    53780    9300      0    1.48e+00    0    1.04e+00
2006 02 14  0240    53780    9600      0    1.49e+00    0    1.04e+00
2006 02 14  0245    53780    9900      0    1.48e+00    0    1.04e+00
2006 02 14  0250    53780   10200      0    1.48e+00    0    1.03e+00
2006 02 14  0255    53780   10500      0    1.47e+00    0    1.04e+00
2006 02 14  0300    53780   10800      0    1.46e+00    0    1.04e+00
2006 02 14  0305    53780   11100      9   -1.00e+05    9   -1.00e+05
2006 02 14  0310    53780   11400      9   -1.00e+05    9   -1.00e+05
2006 02 14  0315    53780   11700      9   -1.00e+05    9   -1.00e+05
2006 02 14  0320    53780   12000      0    1.40e+00    0    9.86e-01
2006 02 14  0325    53780   12300      0    1.50e+00    0    1.06e+00
2006 02 14  0330    53780   12600      0    1.47e+00    0    1.04e+00
2006 02 14  0335    53780   12900      0    1.49e+00    0    1.05e+00
2006 02 14  0340    53780   13200      0    1.48e+00    0    1.04e+00
2006 02 14  0345    53780   13500      0    1.47e+00    0    1.04e+00
2006 02 14  0350    53780   13800      0    1.46e+00    0    1.03e+00
2006 02 14  0355    53780   14100      0    1.49e+00    0    1.05e+00
2006 02 14  0400    53780   14400      0    1.47e+00    0    1.03e+00
2006 02 14  0405    53780   14700      0    1.47e+00    0    1.04e+00
2006 02 14  0410    53780   15000      0    1.50e+00    0    1.05e+00
2006 02 14  0415    53780   15300      0    1.48e+00    0    1.05e+00
2006 02 14  0420    53780   15600      0    1.49e+00    0    1.04e+00
2006 02 14  0425    53780   15900      0    1.47e+00    0    1.03e+00
2006 02 14  0430    53780   16200      0    1.48e+00    0    1.05e+00
2006 02 14  0435    53780   16500      0    1.51e+00    0    1.07e+00
2006 02 14  0440    53780   16800      0    1.50e+00    0    1.06e+00
2006 02 14  0445    53780   17100      0    1.53e+00    0    1.07e+00
2006 02 14  0450    53780   17400      0    1.50e+00    0    1.04e+00
2006 02 14  0455    53780   17700      0    1.46e+00    0    1.02e+00
2006 02 14  0500    53780   18000      0    1.45e+00    0    1.01e+00
2006 02 14  0505    53780   18300      0    1.47e+00    0    1.04e+00
2006 02 14  0510    53780   18600      0    1.44e+00    0    1.00e+00
2006 02 14  0515    53780   18900      0    1.44e+00    0    1.01e+00
2006 02 14  0520    53780   19200      0    1.46e+00    0    1.02e+00
2006 02 14  0525    53780   19500      0    1.45e+00    0    1.02e+00
2006 02 14  0530    53780   19800      0    1.47e+00    0    1.04e+00
2006 02 14  0535    53780   20100      0    1.45e+00    0    1.02e+00
2006 02 14  0540    53780   20400      0    1.47e+00    0    1.03e+00
2006 02 14  0545    53780   20700      0    1.52e+00    0    1.07e+00
2006 02 14  0550    53780   21000      0    1.50e+00    0    1.05e+00
2006 02 14  0555    53780   21300      0    1.50e+00    0    1.05e+00
2006 02 14  0600    53780   21600      0    1.50e+00    0    1.06e+00
2006 02 14  0605    53780   21900      0    1.49e+00    0    1.05e+00
2006 02 14  0610    53780   22200      0    1.49e+00    0    1.05e+00
2006 02 14  0615    53780   22500      0    1.46e+00    0    1.02e+00
2006 02 14  0620    53780   22800      0    1.49e+00    0    1.06e+00
2006 02 14  0625    53780   23100      0    1.49e+00    0    1.04e+00
2006 02 14  0630    53780   23400      0    1.45e+00    0    1.02e+00
2006 02 14  0635    53780   23700      0    1.51e+00    0    1.06e+00
2006 02 14  0640    53780   24000      0    1.51e+00    0    1.05e+00
2006 02 14  0645    53780   24300      0    1.50e+00    0    1.06e+00
2006 02 14  0650    53780   24600      0    1.49e+00    0    1.05e+00
2006 02 14  0655    53780   24900      0    1.45e+00    0    1.01e+00
2006 02 14  0700    53780   25200      0    1.49e+00    0    1.06e+00
2006 02 14  0705    53780   25500      0    1.48e+00    0    1.04e+00
2006 02 14  0710    53780   25800      0    1.49e+00    0    1.04e+00
2006 02 14  0715    53780   26100      0    1.54e+00    0    1.08e+00
2006 02 14  0720    53780   26400      0    1.47e+00    0    1.03e+00
2006 02 14  0725    53780   26700      0    1.50e+00    0    1.07e+00
2006 02 14  0730    53780   27000      0    1.44e+00    0    1.01e+00
2006 02 14  0735    53780   27300      0    1.48e+00    0    1.04e+00
2006 02 14  0740    53780   27600      0    1.50e+00    0    1.05e+00
2006 02 14  0745    53780   27900      0    1.47e+00    0    1.03e+00
2006 02 14  0750    53780   28200      0    1.48e+00    0    1.05e+00
2006 02 14  0755    53780   28500      0    1.52e+00    0    1.08e+00
2006 02 14  0800    53780   28800      0    1.50e+00    0    1.06e+00
2006 02 14  0805    53780   29100      0    1.46e+00    0    1.03e+00
2006 02 14  0810    53780   29400      0    1.44e+00    0    1.01e+00
2006 02 14  0815    53780   29700      0    1.41e+00    0    9.88e-01
2006 02 14  0820    53780   30000      0    1.46e+00    0    1.02e+00
2006 02 14  0825    53780   30300      0    1.47e+00    0    1.02e+00
2006 02 14  0830    53780   30600      0    1.47e+00    0    1.03e+00
2006 02 14  0835    53780   30900      0    1.48e+00    0    1.04e+00
2006 02 14  0840    53780   31200      0    1.47e+00    0    1.04e+00
2006 02 14  0845    53780   31500      0    1.48e+00    0    1.04e+00
2006 02 14  0850    53780   31800      0    1.48e+00    0    1.04e+00
2006 02 14  0855    53780   32100      0    1.50e+00    0    1.05e+00
2006 02 14  0900    53780   32400      0    1.49e+00    0    1.04e+00
2006 02 14  0905    53780   32700      0    1.48e+00    0    1.04e+00
2006 02 14  0910    53780   33000      0    1.50e+00    0    1.06e+00
2006 02 14  0915    53780   33300      0    1.48e+00    0    1.05e+00
2006 02 14  0920    53780   33600      0    1.48e+00    0    1.04e+00
2006 02 14  0925    53780   33900      0    1.48e+00    0    1.05e+00
2006 02 14  0930    53780   34200      0    1.47e+00    0    1.03e+00
2006 02 14  0935    53780   34500      0    1.48e+00    0    1.05e+00
2006 02 14  0940    53780   34800      0    1.48e+00    0    1.05e+00
2006 02 14  0945    53780   35100      0    1.50e+00    0    1.05e+00
2006 02 14  0950    53780   35400      0    1.49e+00    0    1.05e+00
2006 02 14  0955    53780   35700      0    1.51e+00    0    1.06e+00
2006 02 14  1000    53780   36000      0    1.49e+00    0    1.05e+00
2006 02 14  1005    53780   36300      0    1.46e+00    0    1.03e+00
2006 02 14  1010    53780   36600      0    1.45e+00    0    1.02e+00
2006 02 14  1015    53780   36900      0    1.46e+00    0    1.01e+00
2006 02 14  1020    53780   37200      0    1.50e+00    0    1.05e+00
2006 02 14  1025    53780   37500      0    1.49e+00    0    1.05e+00
2006 02 14  1030    53780   37800      0    1.46e+00    0    1.02e+00
2006 02 14  1035    53780   38100      0    1.47e+00    0    1.04e+00
2006 02 14  1040    53780   38400      0    1.48e+00    0    1.04e+00
2006 02 14  1045    53780   38700      0    1.48e+00    0    1.06e+00
2006 02 14  1050    53780   39000      0    1.48e+00    0    1.03e+00
2006 02 14  1055    53780   39300      0    1.49e+00    0    1.04e+00
2006 02 14  1100    53780   39600      0    1.47e+00    0    1.03e+00
2006 02 14  1105    53780   39900      0    1.49e+00    0    1.04e+00
2006 02 14  1110    53780   40200      0    1.48e+00    0    1.04e+00
2006 02 14  1115    53780   40500      0    1.51e+00    0    1.05e+00
2006 02 14  1120    53780   40800      0    1.47e+00    0    1.03e+00
2006 02 14  1125    53780   41100      0    1.48e+00    0    1.05e+00
2006 02 14  1130    53780   41400      0    1.48e+00    0    1.03e+00
2006 02 14  1135    53780   41700      0    1.51e+00    0    1.07e+00
2006 02 14  1140    53780   42000      0    1.49e+00    0    1.05e+00
2006 02 14  1145    53780   42300      0    1.46e+00    0    1.02e+00
2006 02 14  1150    53780   42600      0    1.49e+00    0    1.05e+00
2006 02 14  1155    53780   42900      0    1.45e+00    0    1.01e+00
2006 02 14  1200    53780   43200      0    1.46e+00    0    1.03e+00
2006 02 14  1205    53780   43500      0    1.51e+00    0    1.07e+00
2006 02 14  1210    53780   43800      0    1.50e+00    0    1.04e+00
2006 02 14  1215    53780   44100      0    1.48e+00    0    1.04e+00
2006 02 14  1220    53780   44400      0    1.45e+00    0    1.02e+00
2006 02 14  1225    53780   44700      0    1.47e+00    0    1.03e+00
2006 02 14  1230    53780   45000      0    1.50e+00    0    1.05e+00
2006 02 14  1235    53780   45300      0    1.48e+00    0    1.04e+00
2006 02 14  1240    53780   45600      0    1.48e+00    0    1.04e+00
2006 02 14  1245    53780   45900      0    1.48e+00    0    1.04e+00
2006 02 14  1250    53780   46200      0    1.48e+00    0    1.03e+00
2006 02 14  1255    53780   46500      0    1.50e+00    0    1.06e+00
2006 02 14  1300    53780   46800      0    1.48e+00    0    1.04e+00
2006 02 14  1305    53780   47100      0    1.48e+00    0    1.03e+00
2006 02 14  1310    53780   47400      0    1.48e+00    0    1.04e+00
2006 02 14  1315    53780   47700      0    1.47e+00    0    1.02e+00
2006 02 14  1320    53780   48000      0    1.49e+00    0    1.06e+00
2006 02 14  1325    53780   48300      0    1.46e+00    0    1.02e+00
2006 02 14  1330    53780   48600      0    1.48e+00    0    1.04e+00
2006 02 14  1335    53780   48900      0    1.48e+00    0    1.04e+00
2006 02 14  1340    53780   49200      0    1.47e+00    0    1.03e+00
2006 02 14  1345    53780   49500      0    1.48e+00    0    1.05e+00
2006 02 14  1350    53780   49800      0    1.47e+00    0    1.04e+00
2006 02 14  1355    53780   50100      0    1.46e+00    0    1.04e+00
2006 02 14  1400    53780   50400      0    1.50e+00    0    1.05e+00
2006 02 14  1405    53780   50700      0    1.47e+00    0    1.03e+00
2006 02 14  1410    53780   51000      0    1.49e+00    0    1.05e+00
2006 02 14  1415    53780   51300      0    1.46e+00    0    1.02e+00
2006 02 14  1420    53780   51600      0    1.47e+00    0    1.03e+00
2006 02 14  1425    53780   51900      0    1.48e+00    0    1.04e+00
2006 02 14  1430    53780   52200      0    1.51e+00    0    1.07e+00
2006 02 14  1435    53780   52500      0    1.46e+00    0    1.03e+00
2006 02 14  1440    53780   52800      0    1.44e+00    0    9.99e-01
2006 02 14  1445    53780   53100      0    1.47e+00    0    1.04e+00
2006 02 14  1450    53780   53400      0    1.47e+00    0    1.02e+00
2006 02 14  1455    53780   53700      0    1.49e+00    0    1.04e+00
2006 02 14  1500    53780   54000      0    1.50e+00    0    1.06e+00
2006 02 14  1505    53780   54300      0    1.48e+00    0    1.05e+00
2006 02 14  1510    53780   54600      0    1.50e+00    0    1.07e+00
2006 02 14  1515    53780   54900      0    1.46e+00    0    1.01e+00
2006 02 14  1520    53780   55200      0    1.49e+00    0    1.05e+00
2006 02 14  1525    53780   55500      0    1.50e+00    0    1.06e+00
2006 02 14  1530    53780   55800      0    1.45e+00    0    1.01e+00
2006 02 14  1535    53780   56100      0    1.46e+00    0    1.04e+00
2006 02 14  1540    53780   56400      0    1.46e+00    0    1.02e+00
2006 02 14  1545    53780   56700      0    1.44e+00    0    1.02e+00
2006 02 14  1550    53780   57000      0    1.49e+00    0    1.04e+00
2006 02 14  1555    53780   57300      0    1.47e+00    0    1.04e+00
2006 02 14  1600    53780   57600      0    1.44e+00    0    1.01e+00
2006 02 14  1605    53780   57900      0    1.47e+00    0    1.03e+00
2006 02 14  1610    53780   58200      0    1.46e+00    0    1.04e+00
2006 02 14  1615    53780   58500      0    1.48e+00    0    1.04e+00
2006 02 14  1620    53780   58800      0    1.49e+00    0    1.05e+00
2006 02 14  1625    53780   59100      0    1.49e+00    0    1.05e+00
2006 02 14  1630    53780   59400      0    1.51e+00    0    1.06e+00
2006 02 14  1635    53780   59700      0    1.47e+00    0    1.02e+00
2006 02 14  1640    53780   60000      0    1.45e+00    0    1.02e+00
2006 02 14  1645    53780   60300      0    1.45e+00    0    1.02e+00
2006 02 14  1650    53780   60600      0    1.47e+00    0    1.03e+00
2006 02 14  1655    53780   60900      0    1.49e+00    0    1.05e+00
2006 02 14  1700    53780   61200      0    1.46e+00    0    1.03e+00
2006 02 14  1705    53780   61500      0    1.46e+00    0    1.04e+00
2006 02 14  1710    53780   61800      0    1.51e+00    0    1.06e+00
2006 02 14  1715    53780   62100      0    1.50e+00    0    1.05e+00
2006 02 14  1720    53780   62400      0    1.49e+00    0    1.06e+00
2006 02 14  1725    53780   62700      0    1.51e+00    0    1.06e+00
2006 02 14  1730    53780   63000      0    1.49e+00    0    1.05e+00
2006 02 14  1735    53780   63300      0    1.42e+00    0    1.00e+00
2006 02 14  1740    53780   63600      0    1.49e+00    0    1.04e+00
2006 02 14  1745    53780   63900      0    1.50e+00    0    1.05e+00
2006 02 14  1750    53780   64200      0    1.49e+00    0    1.04e+00
2006 02 14  1755    53780   64500      0    1.46e+00    0    1.02e+00
2006 02 14  1800    53780   64800      0    1.50e+00    0    1.05e+00
2006 02 14  1805    53780   65100      0    1.48e+00    0    1.03e+00
2006 02 14  1810    53780   65400      0    1.48e+00    0    1.05e+00
2006 02 14  1815    53780   65700      0    1.47e+00    0    1.03e+00
2006 02 14  1820    53780   66000      0    1.48e+00    0    1.04e+00
2006 02 14  1825    53780   66300      0    1.48e+00    0    1.03e+00
2006 02 14  1830    53780   66600      0    1.48e+00    0    1.04e+00
2006 02 14  1835    53780   66900      0    1.46e+00    0    1.02e+00
2006 02 14  1840    53780   67200      0    1.47e+00    0    1.03e+00
2006 02 14  1845    53780   67500      0    1.48e+00    0    1.04e+00
2006 02 14  1850    53780   67800      0    1.47e+00    0    1.03e+00
2006 02 14  1855    53780   68100      0    1.46e+00    0    1.03e+00
2006 02 14  1900    53780   68400      0    1.51e+00    0    1.06e+00
2006 02 14  1905    53780   68700      0    1.48e+00    0    1.04e+00
2006 02 14  1910    53780   69000      0    1.47e+00    0    1.04e+00
2006 02 14  1915    53780   69300      0    1.47e+00    0    1.04e+00
2006 02 14  1920    53780   69600      0    1.49e+00    0    1.05e+00
2006 02 14  1925    53780   69900      0    1.46e+00    0    1.03e+00
2006 02 14  1930    53780   70200      0    1.49e+00    0    1.04e+00
2006 02 14  1935    53780   70500      0    1.46e+00    0    1.03e+00
2006 02 14  1940    53780   70800      0    1.47e+00    0    1.03e+00
2006 02 14  1945    53780   71100      0    1.47e+00    0    1.04e+00
2006 02 14  1950    53780   71400      0    1.50e+00    0    1.05e+00
2006 02 14  1955    53780   71700      0    1.46e+00    0    1.03e+00
2006 02 14  2000    53780   72000      0    1.46e+00    0    1.03e+00
2006 02 14  2005    53780   72300      0    1.51e+00    0    1.06e+00
2006 02 14  2010    53780   72600      0    1.48e+00    0    1.04e+00
2006 02 14  2015    53780   72900      0    1.48e+00    0    1.05e+00
2006 02 14  2020    53780   73200      0    1.50e+00    0    1.04e+00
2006 02 14  2025    53780   73500      0    1.48e+00    0    1.03e+00
2006 02 14  2030    53780   73800      0    1.47e+00    0    1.04e+00
2006 02 14  2035    53780   74100      0    1.46e+00    0    1.03e+00
2006 02 14  2040    53780   74400      0    1.46e+00    0    1.01e+00
2006 02 14  2045    53780   74700      0    1.47e+00    0    1.03e+00
2006 02 14  2050    53780   75000      0    1.45e+00    0    1.02e+00
2006 02 14  2055    53780   75300      0    1.45e+00    0    1.01e+00
2006 02 14  2100    53780   75600      0    1.50e+00    0    1.06e+00
2006 02 14  2105    53780   75900      0    1.48e+00    0    1.04e+00
2006 02 14  2110    53780   76200      0    1.48e+00    0    1.04e+00
2006 02 14  2115    53780   76500      0    1.45e+00    0    1.02e+00
2006 02 14  2120    53780   76800      0    1.46e+00    0    1.03e+00
2006 02 14  2125    53780   77100      0    1.46e+00    0    1.01e+00
2006 02 14  2130    53780   77400      0    1.46e+00    0    1.03e+00
2006 02 14  2135    53780   77700      0    1.50e+00    0    1.06e+00
2006 02 14  2140    53780   78000      0    1.50e+00    0    1.06e+00
2006 02 14  2145    53780   78300      0    1.46e+00    0    1.02e+00
2006 02 14  2150    53780   78600      0    1.48e+00    0    1.05e+00
2006 02 14  2155    53780   78900      0    1.45e+00    0    1.04e+00
2006 02 14  2200    53780   79200      0    1.49e+00    0    1.05e+00
2006 02 14  2205    53780   79500      0    1.46e+00    0    1.03e+00
2006 02 14  2210    53780   79800      0    1.47e+00    0    1.02e+00
2006 02 14  2215    53780   80100      0    1.48e+00    0    1.04e+00
2006 02 14  2220    53780   80400      0    1.48e+00    0    1.04e+00
2006 02 14  2225    53780   80700      0    1.45e+00    0    1.02e+00
2006 02 14  2230    53780   81000      0    1.45e+00    0    1.01e+00
2006 02 14  2235    53780   81300      0    1.47e+00    0    1.02e+00
2006 02 14  2240    53780   81600      0    1.47e+00    0    1.03e+00
2006 02 14  2245    53780   81900      0    1.43e+00    0    1.00e+00
2006 02 14  2250    53780   82200      0    1.46e+00    0    1.03e+00
2006 02 14  2255    53780   82500      0    1.46e+00    0    1.02e+00
2006 02 14  2300    53780   82800      0    1.46e+00    0    1.03e+00
2006 02 14  2305    53780   83100      0    1.42e+00    0    1.00e+00
2006 02 14  2310    53780   83400      0    1.44e+00    0    1.01e+00
2006 02 14  2315    53780   83700      0    1.44e+00    0    1.01e+00
2006 02 14  2320    53780   84000      0    1.46e+00    0    1.01e+00
2006 02 14  2325    53780   84300      0    1.47e+00    0    1.04e+00
2006 02 14  2330    53780   84600      0    1.44e+00    0    1.01e+00
2006 02 14  2335    53780   84900      0    1.46e+00    0    1.03e+00
2006 02 14  2340    53780   85200      0    1.44e+00    0    1.01e+00
2006 02 14  2345    53780   85500      0    1.48e+00    0    1.03e+00
2006 02 14  2350    53780   85800      0    1.47e+00    0    1.04e+00
2006 02 14  2355    53780   86100      0    1.47e+00    0    1.05e+00
