:Data_list: 20060926_ace_sis_5m.txt
:Created: 2006 Sep 27 0011 UT
# Prepared by the U.S. Dept. of Commerce, NOAA, Space Environment Center.
# Please send comments and suggestions to SEC.Webmaster@noaa.gov 
# 
# Units: proton flux p/cs2-sec-ster
# Status(S): 0 = nominal data, 1 to 8 = bad data record, 9 = no data
# Missing data values: -1.00e+05
# Source: ACE Satellite - Solar Isotope Spectrometer
#
# 5-minute averaged Real-time Integral Flux of High-energy Solar Protons
# 
#                 Modified Seconds
# UT Date   Time   Julian  of the      ---- Integral Proton Flux ----
# YR MO DA  HHMM     Day     Day       S    > 10 MeV    S    > 30 MeV
#--------------------------------------------------------------------
2006 09 26  0000    54004       0      0    1.66e+00    0    1.15e+00
2006 09 26  0005    54004     300      0    1.67e+00    0    1.17e+00
2006 09 26  0010    54004     600      0    1.61e+00    0    1.13e+00
2006 09 26  0015    54004     900      0    1.69e+00    0    1.19e+00
2006 09 26  0020    54004    1200      0    1.64e+00    0    1.15e+00
2006 09 26  0025    54004    1500      0    1.65e+00    0    1.19e+00
2006 09 26  0030    54004    1800      9   -1.00e+05    9   -1.00e+05
2006 09 26  0035    54004    2100      9   -1.00e+05    9   -1.00e+05
2006 09 26  0040    54004    2400      9   -1.00e+05    9   -1.00e+05
2006 09 26  0045    54004    2700      9   -1.00e+05    9   -1.00e+05
2006 09 26  0050    54004    3000      9   -1.00e+05    9   -1.00e+05
2006 09 26  0055    54004    3300      9   -1.00e+05    9   -1.00e+05
2006 09 26  0100    54004    3600      9   -1.00e+05    9   -1.00e+05
2006 09 26  0105    54004    3900      0    1.63e+00    0    1.13e+00
2006 09 26  0110    54004    4200      0    1.65e+00    0    1.15e+00
2006 09 26  0115    54004    4500      0    1.62e+00    0    1.14e+00
2006 09 26  0120    54004    4800      0    1.67e+00    0    1.16e+00
2006 09 26  0125    54004    5100      0    1.65e+00    0    1.17e+00
2006 09 26  0130    54004    5400      0    1.65e+00    0    1.16e+00
2006 09 26  0135    54004    5700      0    1.61e+00    0    1.12e+00
2006 09 26  0140    54004    6000      0    1.62e+00    0    1.14e+00
2006 09 26  0145    54004    6300      0    1.62e+00    0    1.13e+00
2006 09 26  0150    54004    6600      0    1.67e+00    0    1.17e+00
2006 09 26  0155    54004    6900      0    1.65e+00    0    1.16e+00
2006 09 26  0200    54004    7200      0    1.63e+00    0    1.14e+00
2006 09 26  0205    54004    7500      0    1.63e+00    0    1.15e+00
2006 09 26  0210    54004    7800      0    1.65e+00    0    1.15e+00
2006 09 26  0215    54004    8100      0    1.60e+00    0    1.12e+00
2006 09 26  0220    54004    8400      0    1.67e+00    0    1.17e+00
2006 09 26  0225    54004    8700      0    1.61e+00    0    1.13e+00
2006 09 26  0230    54004    9000      0    1.61e+00    0    1.14e+00
2006 09 26  0235    54004    9300      0    1.64e+00    0    1.14e+00
2006 09 26  0240    54004    9600      0    1.67e+00    0    1.17e+00
2006 09 26  0245    54004    9900      0    1.66e+00    0    1.17e+00
2006 09 26  0250    54004   10200      0    1.60e+00    0    1.12e+00
2006 09 26  0255    54004   10500      0    1.64e+00    0    1.15e+00
2006 09 26  0300    54004   10800      0    1.68e+00    0    1.18e+00
2006 09 26  0305    54004   11100      0    1.71e+00    0    1.20e+00
2006 09 26  0310    54004   11400      0    1.67e+00    0    1.17e+00
2006 09 26  0315    54004   11700      0    1.63e+00    0    1.15e+00
2006 09 26  0320    54004   12000      0    1.65e+00    0    1.16e+00
2006 09 26  0325    54004   12300      0    1.64e+00    0    1.16e+00
2006 09 26  0330    54004   12600      0    1.68e+00    0    1.18e+00
2006 09 26  0335    54004   12900      0    1.62e+00    0    1.13e+00
2006 09 26  0340    54004   13200      0    1.61e+00    0    1.14e+00
2006 09 26  0345    54004   13500      0    1.65e+00    0    1.15e+00
2006 09 26  0350    54004   13800      9   -1.00e+05    9   -1.00e+05
2006 09 26  0355    54004   14100      9   -1.00e+05    9   -1.00e+05
2006 09 26  0400    54004   14400      9   -1.00e+05    9   -1.00e+05
2006 09 26  0405    54004   14700      9   -1.00e+05    9   -1.00e+05
2006 09 26  0410    54004   15000      9   -1.00e+05    9   -1.00e+05
2006 09 26  0415    54004   15300      9   -1.00e+05    9   -1.00e+05
2006 09 26  0420    54004   15600      9   -1.00e+05    9   -1.00e+05
2006 09 26  0425    54004   15900      9   -1.00e+05    9   -1.00e+05
2006 09 26  0430    54004   16200      9   -1.00e+05    9   -1.00e+05
2006 09 26  0435    54004   16500      9   -1.00e+05    9   -1.00e+05
2006 09 26  0440    54004   16800      9   -1.00e+05    9   -1.00e+05
2006 09 26  0445    54004   17100      9   -1.00e+05    9   -1.00e+05
2006 09 26  0450    54004   17400      9   -1.00e+05    9   -1.00e+05
2006 09 26  0455    54004   17700      9   -1.00e+05    9   -1.00e+05
2006 09 26  0500    54004   18000      9   -1.00e+05    9   -1.00e+05
2006 09 26  0505    54004   18300      9   -1.00e+05    9   -1.00e+05
2006 09 26  0510    54004   18600      9   -1.00e+05    9   -1.00e+05
2006 09 26  0515    54004   18900      9   -1.00e+05    9   -1.00e+05
2006 09 26  0520    54004   19200      9   -1.00e+05    9   -1.00e+05
2006 09 26  0525    54004   19500      9   -1.00e+05    9   -1.00e+05
2006 09 26  0530    54004   19800      9   -1.00e+05    9   -1.00e+05
2006 09 26  0535    54004   20100      9   -1.00e+05    9   -1.00e+05
2006 09 26  0540    54004   20400      9   -1.00e+05    9   -1.00e+05
2006 09 26  0545    54004   20700      9   -1.00e+05    9   -1.00e+05
2006 09 26  0550    54004   21000      9   -1.00e+05    9   -1.00e+05
2006 09 26  0555    54004   21300      9   -1.00e+05    9   -1.00e+05
2006 09 26  0600    54004   21600      9   -1.00e+05    9   -1.00e+05
2006 09 26  0605    54004   21900      0    1.65e+00    0    1.15e+00
2006 09 26  0610    54004   22200      0    1.61e+00    0    1.13e+00
2006 09 26  0615    54004   22500      0    1.65e+00    0    1.16e+00
2006 09 26  0620    54004   22800      0    1.64e+00    0    1.14e+00
2006 09 26  0625    54004   23100      0    1.66e+00    0    1.16e+00
2006 09 26  0630    54004   23400      0    1.64e+00    0    1.15e+00
2006 09 26  0635    54004   23700      0    1.68e+00    0    1.17e+00
2006 09 26  0640    54004   24000      0    1.66e+00    0    1.15e+00
2006 09 26  0645    54004   24300      0    1.67e+00    0    1.18e+00
2006 09 26  0650    54004   24600      0    1.65e+00    0    1.16e+00
2006 09 26  0655    54004   24900      0    1.60e+00    0    1.12e+00
2006 09 26  0700    54004   25200      0    1.64e+00    0    1.16e+00
2006 09 26  0705    54004   25500      0    1.61e+00    0    1.13e+00
2006 09 26  0710    54004   25800      0    1.66e+00    0    1.16e+00
2006 09 26  0715    54004   26100      0    1.65e+00    0    1.15e+00
2006 09 26  0720    54004   26400      0    1.64e+00    0    1.16e+00
2006 09 26  0725    54004   26700      0    1.62e+00    0    1.13e+00
2006 09 26  0730    54004   27000      0    1.61e+00    0    1.13e+00
2006 09 26  0735    54004   27300      0    1.64e+00    0    1.15e+00
2006 09 26  0740    54004   27600      0    1.65e+00    0    1.15e+00
2006 09 26  0745    54004   27900      0    1.64e+00    0    1.16e+00
2006 09 26  0750    54004   28200      0    1.61e+00    0    1.13e+00
2006 09 26  0755    54004   28500      0    1.66e+00    0    1.16e+00
2006 09 26  0800    54004   28800      0    1.65e+00    0    1.15e+00
2006 09 26  0805    54004   29100      0    1.64e+00    0    1.16e+00
2006 09 26  0810    54004   29400      0    1.63e+00    0    1.14e+00
2006 09 26  0815    54004   29700      0    1.62e+00    0    1.14e+00
2006 09 26  0820    54004   30000      0    1.60e+00    0    1.12e+00
2006 09 26  0825    54004   30300      0    1.64e+00    0    1.15e+00
2006 09 26  0830    54004   30600      0    1.68e+00    0    1.17e+00
2006 09 26  0835    54004   30900      0    1.63e+00    0    1.14e+00
2006 09 26  0840    54004   31200      0    1.58e+00    0    1.10e+00
2006 09 26  0845    54004   31500      0    1.64e+00    0    1.15e+00
2006 09 26  0850    54004   31800      0    1.62e+00    0    1.13e+00
2006 09 26  0855    54004   32100      0    1.65e+00    0    1.14e+00
2006 09 26  0900    54004   32400      0    1.63e+00    0    1.14e+00
2006 09 26  0905    54004   32700      0    1.65e+00    0    1.15e+00
2006 09 26  0910    54004   33000      0    1.67e+00    0    1.16e+00
2006 09 26  0915    54004   33300      0    1.66e+00    0    1.17e+00
2006 09 26  0920    54004   33600      0    1.62e+00    0    1.13e+00
2006 09 26  0925    54004   33900      0    1.67e+00    0    1.18e+00
2006 09 26  0930    54004   34200      0    1.61e+00    0    1.12e+00
2006 09 26  0935    54004   34500      0    1.65e+00    0    1.17e+00
2006 09 26  0940    54004   34800      0    1.65e+00    0    1.16e+00
2006 09 26  0945    54004   35100      0    1.67e+00    0    1.18e+00
2006 09 26  0950    54004   35400      0    1.61e+00    0    1.12e+00
2006 09 26  0955    54004   35700      0    1.62e+00    0    1.13e+00
2006 09 26  1000    54004   36000      0    1.61e+00    0    1.12e+00
2006 09 26  1005    54004   36300      0    1.67e+00    0    1.16e+00
2006 09 26  1010    54004   36600      0    1.74e+00    0    1.26e+00
2006 09 26  1015    54004   36900      0    1.66e+00    0    1.16e+00
2006 09 26  1020    54004   37200      0    1.66e+00    0    1.16e+00
2006 09 26  1025    54004   37500      0    1.63e+00    0    1.14e+00
2006 09 26  1030    54004   37800      0    1.62e+00    0    1.15e+00
2006 09 26  1035    54004   38100      0    1.51e+00    0    1.06e+00
2006 09 26  1040    54004   38400      0    1.64e+00    0    1.15e+00
2006 09 26  1045    54004   38700      0    1.62e+00    0    1.13e+00
2006 09 26  1050    54004   39000      0    1.65e+00    0    1.15e+00
2006 09 26  1055    54004   39300      0    1.64e+00    0    1.15e+00
2006 09 26  1100    54004   39600      0    1.67e+00    0    1.19e+00
2006 09 26  1105    54004   39900      0    1.66e+00    0    1.16e+00
2006 09 26  1110    54004   40200      0    1.65e+00    0    1.16e+00
2006 09 26  1115    54004   40500      0    1.65e+00    0    1.17e+00
2006 09 26  1120    54004   40800      0    1.65e+00    0    1.16e+00
2006 09 26  1125    54004   41100      0    1.62e+00    0    1.14e+00
2006 09 26  1130    54004   41400      0    1.64e+00    0    1.15e+00
2006 09 26  1135    54004   41700      0    1.65e+00    0    1.16e+00
2006 09 26  1140    54004   42000      0    1.65e+00    0    1.15e+00
2006 09 26  1145    54004   42300      0    1.67e+00    0    1.18e+00
2006 09 26  1150    54004   42600      0    1.64e+00    0    1.15e+00
2006 09 26  1155    54004   42900      0    1.68e+00    0    1.16e+00
2006 09 26  1200    54004   43200      0    1.70e+00    0    1.19e+00
2006 09 26  1205    54004   43500      0    1.64e+00    0    1.15e+00
2006 09 26  1210    54004   43800      0    1.66e+00    0    1.16e+00
2006 09 26  1215    54004   44100      0    1.63e+00    0    1.15e+00
2006 09 26  1220    54004   44400      0    1.66e+00    0    1.17e+00
2006 09 26  1225    54004   44700      0    1.66e+00    0    1.17e+00
2006 09 26  1230    54004   45000      0    1.62e+00    0    1.14e+00
2006 09 26  1235    54004   45300      0    1.65e+00    0    1.14e+00
2006 09 26  1240    54004   45600      0    1.69e+00    0    1.18e+00
2006 09 26  1245    54004   45900      0    1.65e+00    0    1.15e+00
2006 09 26  1250    54004   46200      0    1.67e+00    0    1.18e+00
2006 09 26  1255    54004   46500      0    1.64e+00    0    1.15e+00
2006 09 26  1300    54004   46800      0    1.63e+00    0    1.14e+00
2006 09 26  1305    54004   47100      0    1.59e+00    0    1.13e+00
2006 09 26  1310    54004   47400      0    1.63e+00    0    1.14e+00
2006 09 26  1315    54004   47700      0    1.66e+00    0    1.16e+00
2006 09 26  1320    54004   48000      0    1.64e+00    0    1.16e+00
2006 09 26  1325    54004   48300      0    1.65e+00    0    1.16e+00
2006 09 26  1330    54004   48600      0    1.67e+00    0    1.16e+00
2006 09 26  1335    54004   48900      0    1.67e+00    0    1.17e+00
2006 09 26  1340    54004   49200      0    1.66e+00    0    1.16e+00
2006 09 26  1345    54004   49500      0    1.67e+00    0    1.16e+00
2006 09 26  1350    54004   49800      0    1.65e+00    0    1.17e+00
2006 09 26  1355    54004   50100      0    1.64e+00    0    1.14e+00
2006 09 26  1400    54004   50400      0    1.65e+00    0    1.15e+00
2006 09 26  1405    54004   50700      0    1.63e+00    0    1.15e+00
2006 09 26  1410    54004   51000      0    1.61e+00    0    1.13e+00
2006 09 26  1415    54004   51300      0    1.68e+00    0    1.17e+00
2006 09 26  1420    54004   51600      0    1.64e+00    0    1.15e+00
2006 09 26  1425    54004   51900      0    1.68e+00    0    1.18e+00
2006 09 26  1430    54004   52200      0    1.63e+00    0    1.14e+00
2006 09 26  1435    54004   52500      0    1.64e+00    0    1.15e+00
2006 09 26  1440    54004   52800      0    1.62e+00    0    1.14e+00
2006 09 26  1445    54004   53100      0    1.63e+00    0    1.14e+00
2006 09 26  1450    54004   53400      0    1.63e+00    0    1.15e+00
2006 09 26  1455    54004   53700      0    1.64e+00    0    1.14e+00
2006 09 26  1500    54004   54000      0    1.66e+00    0    1.16e+00
2006 09 26  1505    54004   54300      0    1.65e+00    0    1.16e+00
2006 09 26  1510    54004   54600      0    1.65e+00    0    1.16e+00
2006 09 26  1515    54004   54900      0    1.65e+00    0    1.15e+00
2006 09 26  1520    54004   55200      0    1.64e+00    0    1.15e+00
2006 09 26  1525    54004   55500      0    1.60e+00    0    1.12e+00
2006 09 26  1530    54004   55800      0    1.64e+00    0    1.15e+00
2006 09 26  1535    54004   56100      0    1.62e+00    0    1.14e+00
2006 09 26  1540    54004   56400      0    1.64e+00    0    1.16e+00
2006 09 26  1545    54004   56700      0    1.65e+00    0    1.16e+00
2006 09 26  1550    54004   57000      0    1.68e+00    0    1.18e+00
2006 09 26  1555    54004   57300      0    1.66e+00    0    1.17e+00
2006 09 26  1600    54004   57600      0    1.64e+00    0    1.15e+00
2006 09 26  1605    54004   57900      0    1.65e+00    0    1.16e+00
2006 09 26  1610    54004   58200      0    1.66e+00    0    1.17e+00
2006 09 26  1615    54004   58500      0    1.65e+00    0    1.17e+00
2006 09 26  1620    54004   58800      0    1.65e+00    0    1.16e+00
2006 09 26  1625    54004   59100      0    1.63e+00    0    1.15e+00
2006 09 26  1630    54004   59400      0    1.68e+00    0    1.17e+00
2006 09 26  1635    54004   59700      0    1.66e+00    0    1.16e+00
2006 09 26  1640    54004   60000      0    1.61e+00    0    1.14e+00
2006 09 26  1645    54004   60300      0    1.64e+00    0    1.16e+00
2006 09 26  1650    54004   60600      0    1.63e+00    0    1.14e+00
2006 09 26  1655    54004   60900      0    1.64e+00    0    1.15e+00
2006 09 26  1700    54004   61200      0    1.66e+00    0    1.17e+00
2006 09 26  1705    54004   61500      0    1.67e+00    0    1.17e+00
2006 09 26  1710    54004   61800      0    1.62e+00    0    1.14e+00
2006 09 26  1715    54004   62100      0    1.67e+00    0    1.17e+00
2006 09 26  1720    54004   62400      0    1.68e+00    0    1.18e+00
2006 09 26  1725    54004   62700      0    1.69e+00    0    1.18e+00
2006 09 26  1730    54004   63000      0    1.67e+00    0    1.17e+00
2006 09 26  1735    54004   63300      0    1.66e+00    0    1.17e+00
2006 09 26  1740    54004   63600      0    1.68e+00    0    1.18e+00
2006 09 26  1745    54004   63900      0    1.65e+00    0    1.15e+00
2006 09 26  1750    54004   64200      0    1.66e+00    0    1.17e+00
2006 09 26  1755    54004   64500      0    1.67e+00    0    1.17e+00
2006 09 26  1800    54004   64800      0    1.71e+00    0    1.20e+00
2006 09 26  1805    54004   65100      0    1.66e+00    0    1.17e+00
2006 09 26  1810    54004   65400      0    1.65e+00    0    1.17e+00
2006 09 26  1815    54004   65700      0    1.67e+00    0    1.16e+00
2006 09 26  1820    54004   66000      0    1.64e+00    0    1.15e+00
2006 09 26  1825    54004   66300      0    1.65e+00    0    1.16e+00
2006 09 26  1830    54004   66600      0    1.67e+00    0    1.18e+00
2006 09 26  1835    54004   66900      0    1.65e+00    0    1.16e+00
2006 09 26  1840    54004   67200      0    1.67e+00    0    1.17e+00
2006 09 26  1845    54004   67500      0    1.67e+00    0    1.18e+00
2006 09 26  1850    54004   67800      0    1.66e+00    0    1.17e+00
2006 09 26  1855    54004   68100      0    1.70e+00    0    1.19e+00
2006 09 26  1900    54004   68400      0    1.65e+00    0    1.15e+00
2006 09 26  1905    54004   68700      0    1.70e+00    0    1.18e+00
2006 09 26  1910    54004   69000      0    1.64e+00    0    1.15e+00
2006 09 26  1915    54004   69300      0    1.65e+00    0    1.14e+00
2006 09 26  1920    54004   69600      0    1.61e+00    0    1.12e+00
2006 09 26  1925    54004   69900      0    1.64e+00    0    1.15e+00
2006 09 26  1930    54004   70200      0    1.66e+00    0    1.18e+00
2006 09 26  1935    54004   70500      0    1.68e+00    0    1.16e+00
2006 09 26  1940    54004   70800      0    1.67e+00    0    1.17e+00
2006 09 26  1945    54004   71100      0    1.67e+00    0    1.18e+00
2006 09 26  1950    54004   71400      0    1.58e+00    0    1.11e+00
2006 09 26  1955    54004   71700      0    1.66e+00    0    1.16e+00
2006 09 26  2000    54004   72000      0    1.66e+00    0    1.17e+00
2006 09 26  2005    54004   72300      0    1.62e+00    0    1.13e+00
2006 09 26  2010    54004   72600      0    1.66e+00    0    1.15e+00
2006 09 26  2015    54004   72900      0    1.69e+00    0    1.20e+00
2006 09 26  2020    54004   73200      0    1.63e+00    0    1.13e+00
2006 09 26  2025    54004   73500      0    1.65e+00    0    1.15e+00
2006 09 26  2030    54004   73800      0    1.70e+00    0    1.19e+00
2006 09 26  2035    54004   74100      0    1.68e+00    0    1.17e+00
2006 09 26  2040    54004   74400      0    1.67e+00    0    1.17e+00
2006 09 26  2045    54004   74700      0    1.64e+00    0    1.13e+00
2006 09 26  2050    54004   75000      0    1.66e+00    0    1.16e+00
2006 09 26  2055    54004   75300      0    1.63e+00    0    1.15e+00
2006 09 26  2100    54004   75600      0    1.64e+00    0    1.15e+00
2006 09 26  2105    54004   75900      0    1.64e+00    0    1.15e+00
2006 09 26  2110    54004   76200      0    1.64e+00    0    1.14e+00
2006 09 26  2115    54004   76500      0    1.63e+00    0    1.15e+00
2006 09 26  2120    54004   76800      0    1.61e+00    0    1.12e+00
2006 09 26  2125    54004   77100      0    1.61e+00    0    1.12e+00
2006 09 26  2130    54004   77400      0    1.62e+00    0    1.14e+00
2006 09 26  2135    54004   77700      0    1.68e+00    0    1.17e+00
2006 09 26  2140    54004   78000      0    1.64e+00    0    1.15e+00
2006 09 26  2145    54004   78300      0    1.67e+00    0    1.18e+00
2006 09 26  2150    54004   78600      0    1.63e+00    0    1.14e+00
2006 09 26  2155    54004   78900      0    1.63e+00    0    1.14e+00
2006 09 26  2200    54004   79200      0    1.65e+00    0    1.15e+00
2006 09 26  2205    54004   79500      0    1.59e+00    0    1.11e+00
2006 09 26  2210    54004   79800      0    1.59e+00    0    1.09e+00
2006 09 26  2215    54004   80100      0    1.65e+00    0    1.17e+00
2006 09 26  2220    54004   80400      0    1.64e+00    0    1.15e+00
2006 09 26  2225    54004   80700      0    1.66e+00    0    1.16e+00
2006 09 26  2230    54004   81000      0    1.67e+00    0    1.15e+00
2006 09 26  2235    54004   81300      0    1.70e+00    0    1.19e+00
2006 09 26  2240    54004   81600      0    1.65e+00    0    1.15e+00
2006 09 26  2245    54004   81900      0    1.64e+00    0    1.14e+00
2006 09 26  2250    54004   82200      0    1.63e+00    0    1.15e+00
2006 09 26  2255    54004   82500      0    1.63e+00    0    1.13e+00
2006 09 26  2300    54004   82800      0    1.66e+00    0    1.17e+00
2006 09 26  2305    54004   83100      0    1.67e+00    0    1.17e+00
2006 09 26  2310    54004   83400      0    1.63e+00    0    1.13e+00
2006 09 26  2315    54004   83700      0    1.61e+00    0    1.12e+00
2006 09 26  2320    54004   84000      0    1.66e+00    0    1.16e+00
2006 09 26  2325    54004   84300      0    1.67e+00    0    1.17e+00
2006 09 26  2330    54004   84600      0    1.66e+00    0    1.16e+00
2006 09 26  2335    54004   84900      0    1.65e+00    0    1.15e+00
2006 09 26  2340    54004   85200      0    1.65e+00    0    1.15e+00
2006 09 26  2345    54004   85500      0    1.64e+00    0    1.15e+00
2006 09 26  2350    54004   85800      0    1.61e+00    0    1.13e+00
2006 09 26  2355    54004   86100      0    1.66e+00    0    1.17e+00
