:Data_list: 20061028_ace_sis_5m.txt
:Created: 2006 Oct 29 0011 UT
# Prepared by the U.S. Dept. of Commerce, NOAA, Space Environment Center.
# Please send comments and suggestions to SEC.Webmaster@noaa.gov 
# 
# Units: proton flux p/cs2-sec-ster
# Status(S): 0 = nominal data, 1 to 8 = bad data record, 9 = no data
# Missing data values: -1.00e+05
# Source: ACE Satellite - Solar Isotope Spectrometer
#
# 5-minute averaged Real-time Integral Flux of High-energy Solar Protons
# 
#                 Modified Seconds
# UT Date   Time   Julian  of the      ---- Integral Proton Flux ----
# YR MO DA  HHMM     Day     Day       S    > 10 MeV    S    > 30 MeV
#--------------------------------------------------------------------
2006 10 28  0000    54036       0      0    1.69e+00    0    1.19e+00
2006 10 28  0005    54036     300      0    1.71e+00    0    1.20e+00
2006 10 28  0010    54036     600      0    1.70e+00    0    1.20e+00
2006 10 28  0015    54036     900      0    1.70e+00    0    1.19e+00
2006 10 28  0020    54036    1200      0    1.69e+00    0    1.18e+00
2006 10 28  0025    54036    1500      0    1.68e+00    0    1.17e+00
2006 10 28  0030    54036    1800      0    1.71e+00    0    1.19e+00
2006 10 28  0035    54036    2100      0    1.72e+00    0    1.22e+00
2006 10 28  0040    54036    2400      0    1.71e+00    0    1.19e+00
2006 10 28  0045    54036    2700      0    1.68e+00    0    1.16e+00
2006 10 28  0050    54036    3000      0    1.71e+00    0    1.19e+00
2006 10 28  0055    54036    3300      0    1.68e+00    0    1.18e+00
2006 10 28  0100    54036    3600      0    1.71e+00    0    1.19e+00
2006 10 28  0105    54036    3900      0    1.70e+00    0    1.18e+00
2006 10 28  0110    54036    4200      0    1.70e+00    0    1.20e+00
2006 10 28  0115    54036    4500      0    1.71e+00    0    1.20e+00
2006 10 28  0120    54036    4800      0    1.68e+00    0    1.17e+00
2006 10 28  0125    54036    5100      0    1.72e+00    0    1.20e+00
2006 10 28  0130    54036    5400      0    1.66e+00    0    1.17e+00
2006 10 28  0135    54036    5700      0    1.74e+00    0    1.23e+00
2006 10 28  0140    54036    6000      0    1.70e+00    0    1.19e+00
2006 10 28  0145    54036    6300      0    1.62e+00    0    1.13e+00
2006 10 28  0150    54036    6600      0    1.73e+00    0    1.23e+00
2006 10 28  0155    54036    6900      0    1.70e+00    0    1.20e+00
2006 10 28  0200    54036    7200      0    1.70e+00    0    1.19e+00
2006 10 28  0205    54036    7500      0    1.69e+00    0    1.19e+00
2006 10 28  0210    54036    7800      0    1.71e+00    0    1.20e+00
2006 10 28  0215    54036    8100      0    1.73e+00    0    1.22e+00
2006 10 28  0220    54036    8400      0    1.75e+00    0    1.23e+00
2006 10 28  0225    54036    8700      0    1.71e+00    0    1.20e+00
2006 10 28  0230    54036    9000      0    1.72e+00    0    1.20e+00
2006 10 28  0235    54036    9300      0    1.72e+00    0    1.19e+00
2006 10 28  0240    54036    9600      0    1.74e+00    0    1.22e+00
2006 10 28  0245    54036    9900      0    1.73e+00    0    1.21e+00
2006 10 28  0250    54036   10200      0    1.73e+00    0    1.23e+00
2006 10 28  0255    54036   10500      0    1.75e+00    0    1.23e+00
2006 10 28  0300    54036   10800      0    1.76e+00    0    1.24e+00
2006 10 28  0305    54036   11100      0    1.73e+00    0    1.21e+00
2006 10 28  0310    54036   11400      0    1.73e+00    0    1.21e+00
2006 10 28  0315    54036   11700      0    1.69e+00    0    1.20e+00
2006 10 28  0320    54036   12000      0    1.73e+00    0    1.21e+00
2006 10 28  0325    54036   12300      0    1.71e+00    0    1.21e+00
2006 10 28  0330    54036   12600      0    1.68e+00    0    1.17e+00
2006 10 28  0335    54036   12900      0    1.70e+00    0    1.18e+00
2006 10 28  0340    54036   13200      0    1.73e+00    0    1.21e+00
2006 10 28  0345    54036   13500      0    1.74e+00    0    1.21e+00
2006 10 28  0350    54036   13800      0    1.67e+00    0    1.18e+00
2006 10 28  0355    54036   14100      0    1.65e+00    0    1.15e+00
2006 10 28  0400    54036   14400      0    1.75e+00    0    1.22e+00
2006 10 28  0405    54036   14700      0    1.70e+00    0    1.20e+00
2006 10 28  0410    54036   15000      0    1.70e+00    0    1.19e+00
2006 10 28  0415    54036   15300      0    1.72e+00    0    1.21e+00
2006 10 28  0420    54036   15600      0    1.73e+00    0    1.21e+00
2006 10 28  0425    54036   15900      0    1.68e+00    0    1.17e+00
2006 10 28  0430    54036   16200      0    1.74e+00    0    1.22e+00
2006 10 28  0435    54036   16500      0    1.69e+00    0    1.18e+00
2006 10 28  0440    54036   16800      0    1.69e+00    0    1.18e+00
2006 10 28  0445    54036   17100      0    1.73e+00    0    1.21e+00
2006 10 28  0450    54036   17400      0    1.71e+00    0    1.20e+00
2006 10 28  0455    54036   17700      0    1.72e+00    0    1.20e+00
2006 10 28  0500    54036   18000      0    1.76e+00    0    1.24e+00
2006 10 28  0505    54036   18300      0    1.69e+00    0    1.18e+00
2006 10 28  0510    54036   18600      0    1.71e+00    0    1.19e+00
2006 10 28  0515    54036   18900      0    1.69e+00    0    1.18e+00
2006 10 28  0520    54036   19200      0    1.73e+00    0    1.21e+00
2006 10 28  0525    54036   19500      0    1.74e+00    0    1.21e+00
2006 10 28  0530    54036   19800      0    1.77e+00    0    1.22e+00
2006 10 28  0535    54036   20100      0    1.72e+00    0    1.21e+00
2006 10 28  0540    54036   20400      0    1.72e+00    0    1.20e+00
2006 10 28  0545    54036   20700      0    1.73e+00    0    1.21e+00
2006 10 28  0550    54036   21000      0    1.63e+00    0    1.15e+00
2006 10 28  0555    54036   21300      0    1.72e+00    0    1.21e+00
2006 10 28  0600    54036   21600      0    1.73e+00    0    1.21e+00
2006 10 28  0605    54036   21900      0    1.73e+00    0    1.21e+00
2006 10 28  0610    54036   22200      0    1.71e+00    0    1.19e+00
2006 10 28  0615    54036   22500      0    1.73e+00    0    1.21e+00
2006 10 28  0620    54036   22800      0    1.73e+00    0    1.20e+00
2006 10 28  0625    54036   23100      0    1.73e+00    0    1.22e+00
2006 10 28  0630    54036   23400      0    1.73e+00    0    1.23e+00
2006 10 28  0635    54036   23700      0    1.74e+00    0    1.21e+00
2006 10 28  0640    54036   24000      0    1.72e+00    0    1.21e+00
2006 10 28  0645    54036   24300      0    1.73e+00    0    1.20e+00
2006 10 28  0650    54036   24600      0    1.72e+00    0    1.20e+00
2006 10 28  0655    54036   24900      0    1.68e+00    0    1.18e+00
2006 10 28  0700    54036   25200      0    1.71e+00    0    1.19e+00
2006 10 28  0705    54036   25500      0    1.70e+00    0    1.19e+00
2006 10 28  0710    54036   25800      0    1.71e+00    0    1.20e+00
2006 10 28  0715    54036   26100      0    1.68e+00    0    1.17e+00
2006 10 28  0720    54036   26400      0    1.69e+00    0    1.20e+00
2006 10 28  0725    54036   26700      0    1.71e+00    0    1.19e+00
2006 10 28  0730    54036   27000      0    1.73e+00    0    1.22e+00
2006 10 28  0735    54036   27300      0    1.69e+00    0    1.17e+00
2006 10 28  0740    54036   27600      0    1.71e+00    0    1.20e+00
2006 10 28  0745    54036   27900      0    1.69e+00    0    1.18e+00
2006 10 28  0750    54036   28200      0    1.68e+00    0    1.18e+00
2006 10 28  0755    54036   28500      0    1.73e+00    0    1.22e+00
2006 10 28  0800    54036   28800      0    1.69e+00    0    1.18e+00
2006 10 28  0805    54036   29100      0    1.74e+00    0    1.21e+00
2006 10 28  0810    54036   29400      0    1.73e+00    0    1.23e+00
2006 10 28  0815    54036   29700      0    1.72e+00    0    1.20e+00
2006 10 28  0820    54036   30000      0    1.74e+00    0    1.22e+00
2006 10 28  0825    54036   30300      0    1.74e+00    0    1.22e+00
2006 10 28  0830    54036   30600      0    1.69e+00    0    1.19e+00
2006 10 28  0835    54036   30900      0    1.74e+00    0    1.20e+00
2006 10 28  0840    54036   31200      0    1.72e+00    0    1.20e+00
2006 10 28  0845    54036   31500      0    1.73e+00    0    1.22e+00
2006 10 28  0850    54036   31800      0    1.72e+00    0    1.21e+00
2006 10 28  0855    54036   32100      0    1.70e+00    0    1.19e+00
2006 10 28  0900    54036   32400      0    1.74e+00    0    1.23e+00
2006 10 28  0905    54036   32700      0    1.69e+00    0    1.18e+00
2006 10 28  0910    54036   33000      0    1.70e+00    0    1.19e+00
2006 10 28  0915    54036   33300      0    1.71e+00    0    1.20e+00
2006 10 28  0920    54036   33600      0    1.73e+00    0    1.21e+00
2006 10 28  0925    54036   33900      0    1.75e+00    0    1.23e+00
2006 10 28  0930    54036   34200      0    1.69e+00    0    1.18e+00
2006 10 28  0935    54036   34500      0    1.76e+00    0    1.23e+00
2006 10 28  0940    54036   34800      0    1.65e+00    0    1.15e+00
2006 10 28  0945    54036   35100      0    1.68e+00    0    1.19e+00
2006 10 28  0950    54036   35400      0    1.74e+00    0    1.21e+00
2006 10 28  0955    54036   35700      0    1.72e+00    0    1.23e+00
2006 10 28  1000    54036   36000      0    1.68e+00    0    1.17e+00
2006 10 28  1005    54036   36300      0    1.78e+00    0    1.24e+00
2006 10 28  1010    54036   36600      0    1.70e+00    0    1.20e+00
2006 10 28  1015    54036   36900      0    1.72e+00    0    1.22e+00
2006 10 28  1020    54036   37200      0    1.72e+00    0    1.22e+00
2006 10 28  1025    54036   37500      0    1.75e+00    0    1.23e+00
2006 10 28  1030    54036   37800      0    1.70e+00    0    1.20e+00
2006 10 28  1035    54036   38100      0    1.69e+00    0    1.19e+00
2006 10 28  1040    54036   38400      0    1.74e+00    0    1.22e+00
2006 10 28  1045    54036   38700      0    1.73e+00    0    1.21e+00
2006 10 28  1050    54036   39000      0    1.77e+00    0    1.24e+00
2006 10 28  1055    54036   39300      0    1.73e+00    0    1.23e+00
2006 10 28  1100    54036   39600      0    1.73e+00    0    1.22e+00
2006 10 28  1105    54036   39900      0    1.67e+00    0    1.17e+00
2006 10 28  1110    54036   40200      0    1.69e+00    0    1.19e+00
2006 10 28  1115    54036   40500      0    1.71e+00    0    1.19e+00
2006 10 28  1120    54036   40800      0    1.71e+00    0    1.19e+00
2006 10 28  1125    54036   41100      0    1.68e+00    0    1.18e+00
2006 10 28  1130    54036   41400      0    1.71e+00    0    1.20e+00
2006 10 28  1135    54036   41700      0    1.74e+00    0    1.23e+00
2006 10 28  1140    54036   42000      0    1.73e+00    0    1.21e+00
2006 10 28  1145    54036   42300      0    1.74e+00    0    1.21e+00
2006 10 28  1150    54036   42600      0    1.73e+00    0    1.21e+00
2006 10 28  1155    54036   42900      0    1.74e+00    0    1.23e+00
2006 10 28  1200    54036   43200      0    1.73e+00    0    1.21e+00
2006 10 28  1205    54036   43500      0    1.68e+00    0    1.18e+00
2006 10 28  1210    54036   43800      0    1.76e+00    0    1.24e+00
2006 10 28  1215    54036   44100      0    1.71e+00    0    1.21e+00
2006 10 28  1220    54036   44400      0    1.72e+00    0    1.20e+00
2006 10 28  1225    54036   44700      0    1.71e+00    0    1.19e+00
2006 10 28  1230    54036   45000      0    1.74e+00    0    1.22e+00
2006 10 28  1235    54036   45300      0    1.72e+00    0    1.21e+00
2006 10 28  1240    54036   45600      0    1.74e+00    0    1.21e+00
2006 10 28  1245    54036   45900      0    1.74e+00    0    1.23e+00
2006 10 28  1250    54036   46200      0    1.72e+00    0    1.20e+00
2006 10 28  1255    54036   46500      0    1.72e+00    0    1.20e+00
2006 10 28  1300    54036   46800      0    1.72e+00    0    1.21e+00
2006 10 28  1305    54036   47100      0    1.74e+00    0    1.22e+00
2006 10 28  1310    54036   47400      0    1.75e+00    0    1.23e+00
2006 10 28  1315    54036   47700      0    1.68e+00    0    1.17e+00
2006 10 28  1320    54036   48000      0    1.73e+00    0    1.22e+00
2006 10 28  1325    54036   48300      0    1.72e+00    0    1.21e+00
2006 10 28  1330    54036   48600      0    1.72e+00    0    1.20e+00
2006 10 28  1335    54036   48900      0    1.71e+00    0    1.21e+00
2006 10 28  1340    54036   49200      0    1.73e+00    0    1.18e+00
2006 10 28  1345    54036   49500      0    1.70e+00    0    1.20e+00
2006 10 28  1350    54036   49800      0    1.74e+00    0    1.21e+00
2006 10 28  1355    54036   50100      0    1.73e+00    0    1.22e+00
2006 10 28  1400    54036   50400      0    1.70e+00    0    1.19e+00
2006 10 28  1405    54036   50700      0    1.71e+00    0    1.21e+00
2006 10 28  1410    54036   51000      0    1.70e+00    0    1.19e+00
2006 10 28  1415    54036   51300      0    1.70e+00    0    1.19e+00
2006 10 28  1420    54036   51600      0    1.71e+00    0    1.18e+00
2006 10 28  1425    54036   51900      0    1.69e+00    0    1.19e+00
2006 10 28  1430    54036   52200      0    1.68e+00    0    1.17e+00
2006 10 28  1435    54036   52500      0    1.71e+00    0    1.19e+00
2006 10 28  1440    54036   52800      0    1.71e+00    0    1.19e+00
2006 10 28  1445    54036   53100      0    1.68e+00    0    1.17e+00
2006 10 28  1450    54036   53400      0    1.66e+00    0    1.15e+00
2006 10 28  1455    54036   53700      0    1.72e+00    0    1.20e+00
2006 10 28  1500    54036   54000      0    1.71e+00    0    1.20e+00
2006 10 28  1505    54036   54300      0    1.68e+00    0    1.18e+00
2006 10 28  1510    54036   54600      0    1.67e+00    0    1.17e+00
2006 10 28  1515    54036   54900      0    1.69e+00    0    1.19e+00
2006 10 28  1520    54036   55200      0    1.68e+00    0    1.17e+00
2006 10 28  1525    54036   55500      0    1.69e+00    0    1.18e+00
2006 10 28  1530    54036   55800      0    1.69e+00    0    1.18e+00
2006 10 28  1535    54036   56100      0    1.68e+00    0    1.18e+00
2006 10 28  1540    54036   56400      0    1.71e+00    0    1.20e+00
2006 10 28  1545    54036   56700      0    1.67e+00    0    1.16e+00
2006 10 28  1550    54036   57000      0    1.68e+00    0    1.17e+00
2006 10 28  1555    54036   57300      0    1.69e+00    0    1.19e+00
2006 10 28  1600    54036   57600      0    1.68e+00    0    1.18e+00
2006 10 28  1605    54036   57900      0    1.73e+00    0    1.21e+00
2006 10 28  1610    54036   58200      0    1.71e+00    0    1.20e+00
2006 10 28  1615    54036   58500      0    1.69e+00    0    1.20e+00
2006 10 28  1620    54036   58800      0    1.70e+00    0    1.21e+00
2006 10 28  1625    54036   59100      0    1.69e+00    0    1.19e+00
2006 10 28  1630    54036   59400      0    1.67e+00    0    1.17e+00
2006 10 28  1635    54036   59700      0    1.65e+00    0    1.15e+00
2006 10 28  1640    54036   60000      0    1.68e+00    0    1.18e+00
2006 10 28  1645    54036   60300      0    1.67e+00    0    1.17e+00
2006 10 28  1650    54036   60600      0    1.72e+00    0    1.19e+00
2006 10 28  1655    54036   60900      0    1.69e+00    0    1.19e+00
2006 10 28  1700    54036   61200      0    1.60e+00    0    1.12e+00
2006 10 28  1705    54036   61500      0    1.68e+00    0    1.18e+00
2006 10 28  1710    54036   61800      0    1.67e+00    0    1.18e+00
2006 10 28  1715    54036   62100      0    1.70e+00    0    1.19e+00
2006 10 28  1720    54036   62400      0    1.68e+00    0    1.17e+00
2006 10 28  1725    54036   62700      0    1.65e+00    0    1.16e+00
2006 10 28  1730    54036   63000      0    1.68e+00    0    1.18e+00
2006 10 28  1735    54036   63300      0    1.68e+00    0    1.18e+00
2006 10 28  1740    54036   63600      0    1.67e+00    0    1.17e+00
2006 10 28  1745    54036   63900      0    1.69e+00    0    1.19e+00
2006 10 28  1750    54036   64200      0    1.67e+00    0    1.16e+00
2006 10 28  1755    54036   64500      0    1.69e+00    0    1.18e+00
2006 10 28  1800    54036   64800      0    1.66e+00    0    1.17e+00
2006 10 28  1805    54036   65100      0    1.66e+00    0    1.17e+00
2006 10 28  1810    54036   65400      0    1.65e+00    0    1.16e+00
2006 10 28  1815    54036   65700      0    1.65e+00    0    1.16e+00
2006 10 28  1820    54036   66000      0    1.67e+00    0    1.17e+00
2006 10 28  1825    54036   66300      0    1.69e+00    0    1.19e+00
2006 10 28  1830    54036   66600      0    1.71e+00    0    1.19e+00
2006 10 28  1835    54036   66900      0    1.67e+00    0    1.17e+00
2006 10 28  1840    54036   67200      0    1.70e+00    0    1.18e+00
2006 10 28  1845    54036   67500      0    1.63e+00    0    1.14e+00
2006 10 28  1850    54036   67800      0    1.69e+00    0    1.19e+00
2006 10 28  1855    54036   68100      0    1.69e+00    0    1.19e+00
2006 10 28  1900    54036   68400      0    1.65e+00    0    1.15e+00
2006 10 28  1905    54036   68700      0    1.72e+00    0    1.20e+00
2006 10 28  1910    54036   69000      0    1.71e+00    0    1.21e+00
2006 10 28  1915    54036   69300      0    1.67e+00    0    1.17e+00
2006 10 28  1920    54036   69600      0    1.68e+00    0    1.17e+00
2006 10 28  1925    54036   69900      0    1.66e+00    0    1.15e+00
2006 10 28  1930    54036   70200      0    1.67e+00    0    1.17e+00
2006 10 28  1935    54036   70500      0    1.70e+00    0    1.19e+00
2006 10 28  1940    54036   70800      0    1.67e+00    0    1.16e+00
2006 10 28  1945    54036   71100      0    1.70e+00    0    1.20e+00
2006 10 28  1950    54036   71400      0    1.67e+00    0    1.18e+00
2006 10 28  1955    54036   71700      0    1.71e+00    0    1.21e+00
2006 10 28  2000    54036   72000      0    1.68e+00    0    1.17e+00
2006 10 28  2005    54036   72300      0    1.70e+00    0    1.19e+00
2006 10 28  2010    54036   72600      0    1.67e+00    0    1.18e+00
2006 10 28  2015    54036   72900      0    1.67e+00    0    1.17e+00
2006 10 28  2020    54036   73200      0    1.68e+00    0    1.19e+00
2006 10 28  2025    54036   73500      0    1.71e+00    0    1.19e+00
2006 10 28  2030    54036   73800      0    1.69e+00    0    1.19e+00
2006 10 28  2035    54036   74100      0    1.72e+00    0    1.21e+00
2006 10 28  2040    54036   74400      0    1.68e+00    0    1.18e+00
2006 10 28  2045    54036   74700      0    1.68e+00    0    1.19e+00
2006 10 28  2050    54036   75000      0    1.70e+00    0    1.18e+00
2006 10 28  2055    54036   75300      0    1.67e+00    0    1.17e+00
2006 10 28  2100    54036   75600      0    1.68e+00    0    1.18e+00
2006 10 28  2105    54036   75900      0    1.66e+00    0    1.16e+00
2006 10 28  2110    54036   76200      0    1.71e+00    0    1.20e+00
2006 10 28  2115    54036   76500      0    1.69e+00    0    1.18e+00
2006 10 28  2120    54036   76800      0    1.71e+00    0    1.20e+00
2006 10 28  2125    54036   77100      0    1.66e+00    0    1.15e+00
2006 10 28  2130    54036   77400      0    1.67e+00    0    1.17e+00
2006 10 28  2135    54036   77700      0    1.69e+00    0    1.19e+00
2006 10 28  2140    54036   78000      0    1.68e+00    0    1.19e+00
2006 10 28  2145    54036   78300      0    1.67e+00    0    1.18e+00
2006 10 28  2150    54036   78600      0    1.69e+00    0    1.19e+00
2006 10 28  2155    54036   78900      0    1.70e+00    0    1.19e+00
2006 10 28  2200    54036   79200      0    1.68e+00    0    1.18e+00
2006 10 28  2205    54036   79500      0    1.70e+00    0    1.18e+00
2006 10 28  2210    54036   79800      0    1.68e+00    0    1.17e+00
2006 10 28  2215    54036   80100      0    1.69e+00    0    1.19e+00
2006 10 28  2220    54036   80400      0    1.69e+00    0    1.18e+00
2006 10 28  2225    54036   80700      0    1.68e+00    0    1.18e+00
2006 10 28  2230    54036   81000      0    1.66e+00    0    1.15e+00
2006 10 28  2235    54036   81300      9   -1.00e+05    9   -1.00e+05
2006 10 28  2240    54036   81600      0    1.61e+00    0    1.10e+00
2006 10 28  2245    54036   81900      0    1.68e+00    0    1.18e+00
2006 10 28  2250    54036   82200      0    1.71e+00    0    1.20e+00
2006 10 28  2255    54036   82500      0    1.69e+00    0    1.18e+00
2006 10 28  2300    54036   82800      0    1.71e+00    0    1.21e+00
2006 10 28  2305    54036   83100      0    1.70e+00    0    1.18e+00
2006 10 28  2310    54036   83400      0    1.65e+00    0    1.14e+00
2006 10 28  2315    54036   83700      0    1.70e+00    0    1.20e+00
2006 10 28  2320    54036   84000      0    1.68e+00    0    1.17e+00
2006 10 28  2325    54036   84300      0    1.64e+00    0    1.14e+00
2006 10 28  2330    54036   84600      0    1.69e+00    0    1.18e+00
2006 10 28  2335    54036   84900      0    1.66e+00    0    1.16e+00
2006 10 28  2340    54036   85200      0    1.65e+00    0    1.16e+00
2006 10 28  2345    54036   85500      0    1.69e+00    0    1.19e+00
2006 10 28  2350    54036   85800      0    1.71e+00    0    1.20e+00
2006 10 28  2355    54036   86100      0    1.69e+00    0    1.18e+00
