:Data_list: 20060220_ace_sis_5m.txt
:Created: 2006 Feb 21 0011 UT
# Prepared by the U.S. Dept. of Commerce, NOAA, Space Environment Center.
# Please send comments and suggestions to SEC.Webmaster@noaa.gov 
# 
# Units: proton flux p/cs2-sec-ster
# Status(S): 0 = nominal data, 1 to 8 = bad data record, 9 = no data
# Missing data values: -1.00e+05
# Source: ACE Satellite - Solar Isotope Spectrometer
#
# 5-minute averaged Real-time Integral Flux of High-energy Solar Protons
# 
#                 Modified Seconds
# UT Date   Time   Julian  of the      ---- Integral Proton Flux ----
# YR MO DA  HHMM     Day     Day       S    > 10 MeV    S    > 30 MeV
#--------------------------------------------------------------------
2006 02 20  0000    53786       0      0    1.49e+00    0    1.05e+00
2006 02 20  0005    53786     300      0    1.50e+00    0    1.04e+00
2006 02 20  0010    53786     600      0    1.50e+00    0    1.05e+00
2006 02 20  0015    53786     900      0    1.49e+00    0    1.04e+00
2006 02 20  0020    53786    1200      0    1.50e+00    0    1.07e+00
2006 02 20  0025    53786    1500      0    1.48e+00    0    1.04e+00
2006 02 20  0030    53786    1800      0    1.45e+00    0    1.02e+00
2006 02 20  0035    53786    2100      0    1.53e+00    0    1.09e+00
2006 02 20  0040    53786    2400      0    1.44e+00    0    9.93e-01
2006 02 20  0045    53786    2700      0    1.53e+00    0    1.08e+00
2006 02 20  0050    53786    3000      0    1.50e+00    0    1.04e+00
2006 02 20  0055    53786    3300      0    1.50e+00    0    1.05e+00
2006 02 20  0100    53786    3600      0    1.49e+00    0    1.05e+00
2006 02 20  0105    53786    3900      0    1.48e+00    0    1.05e+00
2006 02 20  0110    53786    4200      0    1.50e+00    0    1.06e+00
2006 02 20  0115    53786    4500      0    1.48e+00    0    1.03e+00
2006 02 20  0120    53786    4800      0    1.52e+00    0    1.06e+00
2006 02 20  0125    53786    5100      0    1.49e+00    0    1.04e+00
2006 02 20  0130    53786    5400      0    1.49e+00    0    1.06e+00
2006 02 20  0135    53786    5700      0    1.48e+00    0    1.04e+00
2006 02 20  0140    53786    6000      0    1.49e+00    0    1.05e+00
2006 02 20  0145    53786    6300      0    1.46e+00    0    1.02e+00
2006 02 20  0150    53786    6600      0    1.48e+00    0    1.04e+00
2006 02 20  0155    53786    6900      0    1.46e+00    0    1.03e+00
2006 02 20  0200    53786    7200      0    1.50e+00    0    1.06e+00
2006 02 20  0205    53786    7500      0    1.51e+00    0    1.06e+00
2006 02 20  0210    53786    7800      0    1.49e+00    0    1.05e+00
2006 02 20  0215    53786    8100      0    1.51e+00    0    1.05e+00
2006 02 20  0220    53786    8400      0    1.46e+00    0    1.02e+00
2006 02 20  0225    53786    8700      0    1.52e+00    0    1.07e+00
2006 02 20  0230    53786    9000      0    1.47e+00    0    1.03e+00
2006 02 20  0235    53786    9300      0    1.51e+00    0    1.06e+00
2006 02 20  0240    53786    9600      0    1.50e+00    0    1.05e+00
2006 02 20  0245    53786    9900      0    1.49e+00    0    1.05e+00
2006 02 20  0250    53786   10200      0    1.50e+00    0    1.05e+00
2006 02 20  0255    53786   10500      0    1.48e+00    0    1.04e+00
2006 02 20  0300    53786   10800      0    1.49e+00    0    1.05e+00
2006 02 20  0305    53786   11100      0    1.48e+00    0    1.04e+00
2006 02 20  0310    53786   11400      0    1.47e+00    0    1.03e+00
2006 02 20  0315    53786   11700      0    1.49e+00    0    1.05e+00
2006 02 20  0320    53786   12000      0    1.48e+00    0    1.04e+00
2006 02 20  0325    53786   12300      0    1.50e+00    0    1.06e+00
2006 02 20  0330    53786   12600      0    1.50e+00    0    1.06e+00
2006 02 20  0335    53786   12900      0    1.46e+00    0    1.02e+00
2006 02 20  0340    53786   13200      0    1.51e+00    0    1.07e+00
2006 02 20  0345    53786   13500      0    1.48e+00    0    1.04e+00
2006 02 20  0350    53786   13800      0    1.48e+00    0    1.05e+00
2006 02 20  0355    53786   14100      0    1.47e+00    0    1.04e+00
2006 02 20  0400    53786   14400      0    1.50e+00    0    1.04e+00
2006 02 20  0405    53786   14700      0    1.51e+00    0    1.06e+00
2006 02 20  0410    53786   15000      0    1.49e+00    0    1.05e+00
2006 02 20  0415    53786   15300      0    1.48e+00    0    1.03e+00
2006 02 20  0420    53786   15600      0    1.49e+00    0    1.05e+00
2006 02 20  0425    53786   15900      0    1.49e+00    0    1.05e+00
2006 02 20  0430    53786   16200      0    1.62e+00    0    1.18e+00
2006 02 20  0435    53786   16500      0    1.45e+00    0    1.02e+00
2006 02 20  0440    53786   16800      0    1.46e+00    0    1.02e+00
2006 02 20  0445    53786   17100      0    1.47e+00    0    1.03e+00
2006 02 20  0450    53786   17400      0    1.49e+00    0    1.04e+00
2006 02 20  0455    53786   17700      0    1.49e+00    0    1.04e+00
2006 02 20  0500    53786   18000      0    1.47e+00    0    1.02e+00
2006 02 20  0505    53786   18300      0    1.48e+00    0    1.03e+00
2006 02 20  0510    53786   18600      0    1.50e+00    0    1.05e+00
2006 02 20  0515    53786   18900      0    1.47e+00    0    1.03e+00
2006 02 20  0520    53786   19200      0    1.48e+00    0    1.04e+00
2006 02 20  0525    53786   19500      0    1.43e+00    0    1.01e+00
2006 02 20  0530    53786   19800      0    1.51e+00    0    1.05e+00
2006 02 20  0535    53786   20100      0    1.50e+00    0    1.04e+00
2006 02 20  0540    53786   20400      0    1.53e+00    0    1.08e+00
2006 02 20  0545    53786   20700      0    1.48e+00    0    1.04e+00
2006 02 20  0550    53786   21000      0    1.48e+00    0    1.04e+00
2006 02 20  0555    53786   21300      0    1.50e+00    0    1.04e+00
2006 02 20  0600    53786   21600      0    1.49e+00    0    1.04e+00
2006 02 20  0605    53786   21900      0    1.51e+00    0    1.07e+00
2006 02 20  0610    53786   22200      0    1.52e+00    0    1.08e+00
2006 02 20  0615    53786   22500      0    1.51e+00    0    1.06e+00
2006 02 20  0620    53786   22800      0    1.53e+00    0    1.09e+00
2006 02 20  0625    53786   23100      0    1.53e+00    0    1.07e+00
2006 02 20  0630    53786   23400      0    1.51e+00    0    1.07e+00
2006 02 20  0635    53786   23700      0    1.50e+00    0    1.06e+00
2006 02 20  0640    53786   24000      0    1.52e+00    0    1.08e+00
2006 02 20  0645    53786   24300      0    1.48e+00    0    1.05e+00
2006 02 20  0650    53786   24600      0    1.50e+00    0    1.05e+00
2006 02 20  0655    53786   24900      0    1.48e+00    0    1.04e+00
2006 02 20  0700    53786   25200      0    1.50e+00    0    1.06e+00
2006 02 20  0705    53786   25500      0    1.51e+00    0    1.06e+00
2006 02 20  0710    53786   25800      0    1.47e+00    0    1.03e+00
2006 02 20  0715    53786   26100      0    1.49e+00    0    1.06e+00
2006 02 20  0720    53786   26400      0    1.48e+00    0    1.04e+00
2006 02 20  0725    53786   26700      0    1.48e+00    0    1.04e+00
2006 02 20  0730    53786   27000      0    1.49e+00    0    1.05e+00
2006 02 20  0735    53786   27300      0    1.47e+00    0    1.02e+00
2006 02 20  0740    53786   27600      0    1.48e+00    0    1.05e+00
2006 02 20  0745    53786   27900      0    1.51e+00    0    1.05e+00
2006 02 20  0750    53786   28200      0    1.45e+00    0    1.02e+00
2006 02 20  0755    53786   28500      0    1.50e+00    0    1.06e+00
2006 02 20  0800    53786   28800      0    1.50e+00    0    1.07e+00
2006 02 20  0805    53786   29100      0    1.52e+00    0    1.07e+00
2006 02 20  0810    53786   29400      0    1.48e+00    0    1.03e+00
2006 02 20  0815    53786   29700      0    1.50e+00    0    1.06e+00
2006 02 20  0820    53786   30000      0    1.47e+00    0    1.03e+00
2006 02 20  0825    53786   30300      0    1.47e+00    0    1.03e+00
2006 02 20  0830    53786   30600      0    1.50e+00    0    1.06e+00
2006 02 20  0835    53786   30900      0    1.48e+00    0    1.05e+00
2006 02 20  0840    53786   31200      0    1.49e+00    0    1.04e+00
2006 02 20  0845    53786   31500      0    1.50e+00    0    1.05e+00
2006 02 20  0850    53786   31800      0    1.46e+00    0    1.02e+00
2006 02 20  0855    53786   32100      0    1.49e+00    0    1.05e+00
2006 02 20  0900    53786   32400      0    1.46e+00    0    1.03e+00
2006 02 20  0905    53786   32700      0    1.48e+00    0    1.04e+00
2006 02 20  0910    53786   33000      0    1.44e+00    0    1.02e+00
2006 02 20  0915    53786   33300      0    1.46e+00    0    1.03e+00
2006 02 20  0920    53786   33600      0    1.48e+00    0    1.04e+00
2006 02 20  0925    53786   33900      0    1.46e+00    0    1.03e+00
2006 02 20  0930    53786   34200      0    1.48e+00    0    1.05e+00
2006 02 20  0935    53786   34500      0    1.49e+00    0    1.04e+00
2006 02 20  0940    53786   34800      0    1.48e+00    0    1.04e+00
2006 02 20  0945    53786   35100      0    1.46e+00    0    1.03e+00
2006 02 20  0950    53786   35400      0    1.48e+00    0    1.05e+00
2006 02 20  0955    53786   35700      0    1.44e+00    0    1.01e+00
2006 02 20  1000    53786   36000      0    1.50e+00    0    1.05e+00
2006 02 20  1005    53786   36300      0    1.46e+00    0    1.03e+00
2006 02 20  1010    53786   36600      0    1.47e+00    0    1.04e+00
2006 02 20  1015    53786   36900      0    1.46e+00    0    1.03e+00
2006 02 20  1020    53786   37200      0    1.48e+00    0    1.04e+00
2006 02 20  1025    53786   37500      0    1.48e+00    0    1.04e+00
2006 02 20  1030    53786   37800      0    1.47e+00    0    1.03e+00
2006 02 20  1035    53786   38100      0    1.47e+00    0    1.03e+00
2006 02 20  1040    53786   38400      0    1.48e+00    0    1.03e+00
2006 02 20  1045    53786   38700      0    1.45e+00    0    1.03e+00
2006 02 20  1050    53786   39000      0    1.48e+00    0    1.03e+00
2006 02 20  1055    53786   39300      0    1.46e+00    0    1.01e+00
2006 02 20  1100    53786   39600      0    1.48e+00    0    1.04e+00
2006 02 20  1105    53786   39900      0    1.44e+00    0    1.01e+00
2006 02 20  1110    53786   40200      0    1.47e+00    0    1.03e+00
2006 02 20  1115    53786   40500      0    1.45e+00    0    1.02e+00
2006 02 20  1120    53786   40800      0    1.47e+00    0    1.03e+00
2006 02 20  1125    53786   41100      0    1.45e+00    0    1.02e+00
2006 02 20  1130    53786   41400      0    1.47e+00    0    1.04e+00
2006 02 20  1135    53786   41700      0    1.50e+00    0    1.06e+00
2006 02 20  1140    53786   42000      0    1.49e+00    0    1.04e+00
2006 02 20  1145    53786   42300      0    1.47e+00    0    1.05e+00
2006 02 20  1150    53786   42600      0    1.46e+00    0    1.02e+00
2006 02 20  1155    53786   42900      0    1.45e+00    0    1.02e+00
2006 02 20  1200    53786   43200      0    1.45e+00    0    1.02e+00
2006 02 20  1205    53786   43500      0    1.47e+00    0    1.05e+00
2006 02 20  1210    53786   43800      0    1.53e+00    0    1.08e+00
2006 02 20  1215    53786   44100      0    1.47e+00    0    1.03e+00
2006 02 20  1220    53786   44400      0    1.48e+00    0    1.04e+00
2006 02 20  1225    53786   44700      0    1.45e+00    0    1.02e+00
2006 02 20  1230    53786   45000      0    1.48e+00    0    1.04e+00
2006 02 20  1235    53786   45300      0    1.45e+00    0    1.02e+00
2006 02 20  1240    53786   45600      0    1.47e+00    0    1.02e+00
2006 02 20  1245    53786   45900      0    1.46e+00    0    1.02e+00
2006 02 20  1250    53786   46200      0    1.49e+00    0    1.05e+00
2006 02 20  1255    53786   46500      0    1.47e+00    0    1.04e+00
2006 02 20  1300    53786   46800      0    1.47e+00    0    1.02e+00
2006 02 20  1305    53786   47100      0    1.47e+00    0    1.03e+00
2006 02 20  1310    53786   47400      0    1.45e+00    0    1.02e+00
2006 02 20  1315    53786   47700      0    1.47e+00    0    1.03e+00
2006 02 20  1320    53786   48000      0    1.45e+00    0    1.01e+00
2006 02 20  1325    53786   48300      0    1.46e+00    0    1.03e+00
2006 02 20  1330    53786   48600      0    1.46e+00    0    1.03e+00
2006 02 20  1335    53786   48900      0    1.47e+00    0    1.03e+00
2006 02 20  1340    53786   49200      0    1.45e+00    0    1.00e+00
2006 02 20  1345    53786   49500      0    1.43e+00    0    1.01e+00
2006 02 20  1350    53786   49800      0    1.46e+00    0    1.02e+00
2006 02 20  1355    53786   50100      0    1.47e+00    0    1.03e+00
2006 02 20  1400    53786   50400      0    1.48e+00    0    1.04e+00
2006 02 20  1405    53786   50700      0    1.46e+00    0    1.02e+00
2006 02 20  1410    53786   51000      0    1.46e+00    0    1.03e+00
2006 02 20  1415    53786   51300      0    1.46e+00    0    1.03e+00
2006 02 20  1420    53786   51600      0    1.47e+00    0    1.03e+00
2006 02 20  1425    53786   51900      0    1.42e+00    0    1.00e+00
2006 02 20  1430    53786   52200      0    1.47e+00    0    1.03e+00
2006 02 20  1435    53786   52500      0    1.45e+00    0    1.02e+00
2006 02 20  1440    53786   52800      0    1.49e+00    0    1.05e+00
2006 02 20  1445    53786   53100      0    1.45e+00    0    1.01e+00
2006 02 20  1450    53786   53400      0    1.45e+00    0    1.03e+00
2006 02 20  1455    53786   53700      0    1.47e+00    0    1.04e+00
2006 02 20  1500    53786   54000      0    1.47e+00    0    1.03e+00
2006 02 20  1505    53786   54300      0    1.46e+00    0    1.02e+00
2006 02 20  1510    53786   54600      0    1.47e+00    0    1.03e+00
2006 02 20  1515    53786   54900      0    1.46e+00    0    1.03e+00
2006 02 20  1520    53786   55200      0    1.48e+00    0    1.05e+00
2006 02 20  1525    53786   55500      0    1.47e+00    0    1.03e+00
2006 02 20  1530    53786   55800      0    1.44e+00    0    1.02e+00
2006 02 20  1535    53786   56100      0    1.47e+00    0    1.03e+00
2006 02 20  1540    53786   56400      0    1.48e+00    0    1.03e+00
2006 02 20  1545    53786   56700      0    1.44e+00    0    1.01e+00
2006 02 20  1550    53786   57000      0    1.46e+00    0    1.03e+00
2006 02 20  1555    53786   57300      0    1.47e+00    0    1.05e+00
2006 02 20  1600    53786   57600      0    1.46e+00    0    1.03e+00
2006 02 20  1605    53786   57900      0    1.47e+00    0    1.02e+00
2006 02 20  1610    53786   58200      0    1.44e+00    0    1.01e+00
2006 02 20  1615    53786   58500      0    1.47e+00    0    1.03e+00
2006 02 20  1620    53786   58800      0    1.45e+00    0    1.02e+00
2006 02 20  1625    53786   59100      0    1.49e+00    0    1.05e+00
2006 02 20  1630    53786   59400      0    1.43e+00    0    1.01e+00
2006 02 20  1635    53786   59700      0    1.48e+00    0    1.04e+00
2006 02 20  1640    53786   60000      0    1.48e+00    0    1.04e+00
2006 02 20  1645    53786   60300      0    1.48e+00    0    1.04e+00
2006 02 20  1650    53786   60600      0    1.48e+00    0    1.03e+00
2006 02 20  1655    53786   60900      0    1.46e+00    0    1.02e+00
2006 02 20  1700    53786   61200      0    1.45e+00    0    1.01e+00
2006 02 20  1705    53786   61500      0    1.48e+00    0    1.04e+00
2006 02 20  1710    53786   61800      0    1.45e+00    0    1.01e+00
2006 02 20  1715    53786   62100      0    1.51e+00    0    1.06e+00
2006 02 20  1720    53786   62400      0    1.46e+00    0    1.03e+00
2006 02 20  1725    53786   62700      0    1.48e+00    0    1.04e+00
2006 02 20  1730    53786   63000      0    1.44e+00    0    1.02e+00
2006 02 20  1735    53786   63300      0    1.44e+00    0    1.02e+00
2006 02 20  1740    53786   63600      0    1.47e+00    0    1.03e+00
2006 02 20  1745    53786   63900      0    1.47e+00    0    1.03e+00
2006 02 20  1750    53786   64200      0    1.45e+00    0    1.02e+00
2006 02 20  1755    53786   64500      0    1.51e+00    0    1.06e+00
2006 02 20  1800    53786   64800      0    1.46e+00    0    1.01e+00
2006 02 20  1805    53786   65100      0    1.46e+00    0    1.03e+00
2006 02 20  1810    53786   65400      0    1.44e+00    0    1.02e+00
2006 02 20  1815    53786   65700      0    1.48e+00    0    1.04e+00
2006 02 20  1820    53786   66000      0    1.45e+00    0    1.02e+00
2006 02 20  1825    53786   66300      0    1.48e+00    0    1.05e+00
2006 02 20  1830    53786   66600      0    1.45e+00    0    1.02e+00
2006 02 20  1835    53786   66900      0    1.45e+00    0    1.03e+00
2006 02 20  1840    53786   67200      0    1.45e+00    0    1.01e+00
2006 02 20  1845    53786   67500      0    1.47e+00    0    1.03e+00
2006 02 20  1850    53786   67800      0    1.44e+00    0    1.01e+00
2006 02 20  1855    53786   68100      0    1.43e+00    0    9.93e-01
2006 02 20  1900    53786   68400      0    1.47e+00    0    1.05e+00
2006 02 20  1905    53786   68700      0    1.41e+00    0    9.84e-01
2006 02 20  1910    53786   69000      0    1.45e+00    0    1.03e+00
2006 02 20  1915    53786   69300      0    1.46e+00    0    1.02e+00
2006 02 20  1920    53786   69600      0    1.44e+00    0    1.01e+00
2006 02 20  1925    53786   69900      0    1.43e+00    0    1.00e+00
2006 02 20  1930    53786   70200      0    1.44e+00    0    1.02e+00
2006 02 20  1935    53786   70500      0    1.44e+00    0    1.01e+00
2006 02 20  1940    53786   70800      0    1.42e+00    0    9.96e-01
2006 02 20  1945    53786   71100      0    1.46e+00    0    1.02e+00
2006 02 20  1950    53786   71400      0    1.42e+00    0    1.00e+00
2006 02 20  1955    53786   71700      0    1.46e+00    0    1.03e+00
2006 02 20  2000    53786   72000      0    1.45e+00    0    1.02e+00
2006 02 20  2005    53786   72300      0    1.47e+00    0    1.02e+00
2006 02 20  2010    53786   72600      0    1.47e+00    0    1.04e+00
2006 02 20  2015    53786   72900      0    1.44e+00    0    1.01e+00
2006 02 20  2020    53786   73200      0    1.42e+00    0    9.92e-01
2006 02 20  2025    53786   73500      0    1.42e+00    0    1.01e+00
2006 02 20  2030    53786   73800      0    1.45e+00    0    1.03e+00
2006 02 20  2035    53786   74100      0    1.45e+00    0    1.02e+00
2006 02 20  2040    53786   74400      0    1.45e+00    0    1.02e+00
2006 02 20  2045    53786   74700      0    1.41e+00    0    9.94e-01
2006 02 20  2050    53786   75000      0    1.43e+00    0    1.00e+00
2006 02 20  2055    53786   75300      0    1.43e+00    0    1.01e+00
2006 02 20  2100    53786   75600      0    1.43e+00    0    1.00e+00
2006 02 20  2105    53786   75900      0    1.46e+00    0    1.04e+00
2006 02 20  2110    53786   76200      0    1.46e+00    0    1.02e+00
2006 02 20  2115    53786   76500      0    1.46e+00    0    1.02e+00
2006 02 20  2120    53786   76800      0    1.43e+00    0    1.00e+00
2006 02 20  2125    53786   77100      0    1.44e+00    0    9.99e-01
2006 02 20  2130    53786   77400      0    1.45e+00    0    1.02e+00
2006 02 20  2135    53786   77700      0    1.42e+00    0    9.84e-01
2006 02 20  2140    53786   78000      0    1.44e+00    0    1.02e+00
2006 02 20  2145    53786   78300      0    1.45e+00    0    1.01e+00
2006 02 20  2150    53786   78600      0    1.48e+00    0    1.04e+00
2006 02 20  2155    53786   78900      0    1.44e+00    0    1.02e+00
2006 02 20  2200    53786   79200      0    1.46e+00    0    1.02e+00
2006 02 20  2205    53786   79500      0    1.48e+00    0    1.04e+00
2006 02 20  2210    53786   79800      0    1.47e+00    0    1.02e+00
2006 02 20  2215    53786   80100      0    1.46e+00    0    1.02e+00
2006 02 20  2220    53786   80400      0    1.46e+00    0    1.03e+00
2006 02 20  2225    53786   80700      0    1.44e+00    0    1.02e+00
2006 02 20  2230    53786   81000      0    1.47e+00    0    1.04e+00
2006 02 20  2235    53786   81300      0    1.42e+00    0    9.96e-01
2006 02 20  2240    53786   81600      0    1.47e+00    0    1.03e+00
2006 02 20  2245    53786   81900      0    1.50e+00    0    1.06e+00
2006 02 20  2250    53786   82200      0    1.46e+00    0    1.03e+00
2006 02 20  2255    53786   82500      0    1.48e+00    0    1.04e+00
2006 02 20  2300    53786   82800      0    1.47e+00    0    1.03e+00
2006 02 20  2305    53786   83100      0    1.44e+00    0    1.02e+00
2006 02 20  2310    53786   83400      0    1.47e+00    0    1.04e+00
2006 02 20  2315    53786   83700      0    1.43e+00    0    9.92e-01
2006 02 20  2320    53786   84000      0    1.46e+00    0    1.03e+00
2006 02 20  2325    53786   84300      0    1.46e+00    0    1.02e+00
2006 02 20  2330    53786   84600      0    1.46e+00    0    1.03e+00
2006 02 20  2335    53786   84900      0    1.45e+00    0    1.01e+00
2006 02 20  2340    53786   85200      0    1.45e+00    0    1.01e+00
2006 02 20  2345    53786   85500      0    1.47e+00    0    1.03e+00
2006 02 20  2350    53786   85800      0    1.47e+00    0    1.04e+00
2006 02 20  2355    53786   86100      0    1.48e+00    0    1.04e+00
