:Data_list: 20061120_ace_sis_5m.txt
:Created: 2006 Nov 21 0011 UT
# Prepared by the U.S. Dept. of Commerce, NOAA, Space Environment Center.
# Please send comments and suggestions to SEC.Webmaster@noaa.gov 
# 
# Units: proton flux p/cs2-sec-ster
# Status(S): 0 = nominal data, 1 to 8 = bad data record, 9 = no data
# Missing data values: -1.00e+05
# Source: ACE Satellite - Solar Isotope Spectrometer
#
# 5-minute averaged Real-time Integral Flux of High-energy Solar Protons
# 
#                 Modified Seconds
# UT Date   Time   Julian  of the      ---- Integral Proton Flux ----
# YR MO DA  HHMM     Day     Day       S    > 10 MeV    S    > 30 MeV
#--------------------------------------------------------------------
2006 11 20  0000    54059       0      0    1.77e+00    0    1.24e+00
2006 11 20  0005    54059     300      0    1.80e+00    0    1.28e+00
2006 11 20  0010    54059     600      0    1.82e+00    0    1.28e+00
2006 11 20  0015    54059     900      0    1.68e+00    0    1.17e+00
2006 11 20  0020    54059    1200      0    1.80e+00    0    1.26e+00
2006 11 20  0025    54059    1500      0    1.77e+00    0    1.23e+00
2006 11 20  0030    54059    1800      0    1.80e+00    0    1.25e+00
2006 11 20  0035    54059    2100      0    1.77e+00    0    1.23e+00
2006 11 20  0040    54059    2400      0    1.78e+00    0    1.25e+00
2006 11 20  0045    54059    2700      0    1.79e+00    0    1.25e+00
2006 11 20  0050    54059    3000      0    1.80e+00    0    1.27e+00
2006 11 20  0055    54059    3300      0    1.76e+00    0    1.23e+00
2006 11 20  0100    54059    3600      0    1.77e+00    0    1.25e+00
2006 11 20  0105    54059    3900      0    1.81e+00    0    1.28e+00
2006 11 20  0110    54059    4200      0    1.83e+00    0    1.27e+00
2006 11 20  0115    54059    4500      0    1.76e+00    0    1.23e+00
2006 11 20  0120    54059    4800      0    1.78e+00    0    1.25e+00
2006 11 20  0125    54059    5100      0    1.78e+00    0    1.25e+00
2006 11 20  0130    54059    5400      0    1.75e+00    0    1.22e+00
2006 11 20  0135    54059    5700      0    1.77e+00    0    1.24e+00
2006 11 20  0140    54059    6000      0    1.76e+00    0    1.22e+00
2006 11 20  0145    54059    6300      0    1.83e+00    0    1.27e+00
2006 11 20  0150    54059    6600      0    1.83e+00    0    1.28e+00
2006 11 20  0155    54059    6900      0    1.81e+00    0    1.27e+00
2006 11 20  0200    54059    7200      0    1.77e+00    0    1.24e+00
2006 11 20  0205    54059    7500      0    1.76e+00    0    1.23e+00
2006 11 20  0210    54059    7800      0    1.79e+00    0    1.26e+00
2006 11 20  0215    54059    8100      0    1.79e+00    0    1.25e+00
2006 11 20  0220    54059    8400      0    1.76e+00    0    1.23e+00
2006 11 20  0225    54059    8700      0    1.80e+00    0    1.27e+00
2006 11 20  0230    54059    9000      0    1.79e+00    0    1.25e+00
2006 11 20  0235    54059    9300      0    1.78e+00    0    1.25e+00
2006 11 20  0240    54059    9600      0    1.78e+00    0    1.25e+00
2006 11 20  0245    54059    9900      0    1.81e+00    0    1.26e+00
2006 11 20  0250    54059   10200      0    1.83e+00    0    1.28e+00
2006 11 20  0255    54059   10500      0    1.82e+00    0    1.27e+00
2006 11 20  0300    54059   10800      0    1.81e+00    0    1.26e+00
2006 11 20  0305    54059   11100      0    1.76e+00    0    1.23e+00
2006 11 20  0310    54059   11400      0    1.78e+00    0    1.25e+00
2006 11 20  0315    54059   11700      0    1.73e+00    0    1.22e+00
2006 11 20  0320    54059   12000      0    1.77e+00    0    1.24e+00
2006 11 20  0325    54059   12300      0    1.76e+00    0    1.23e+00
2006 11 20  0330    54059   12600      0    1.78e+00    0    1.25e+00
2006 11 20  0335    54059   12900      0    1.77e+00    0    1.24e+00
2006 11 20  0340    54059   13200      0    1.76e+00    0    1.24e+00
2006 11 20  0345    54059   13500      0    1.79e+00    0    1.25e+00
2006 11 20  0350    54059   13800      0    1.78e+00    0    1.25e+00
2006 11 20  0355    54059   14100      0    1.78e+00    0    1.23e+00
2006 11 20  0400    54059   14400      0    1.77e+00    0    1.23e+00
2006 11 20  0405    54059   14700      0    1.81e+00    0    1.26e+00
2006 11 20  0410    54059   15000      0    1.77e+00    0    1.25e+00
2006 11 20  0415    54059   15300      0    1.77e+00    0    1.24e+00
2006 11 20  0420    54059   15600      0    1.81e+00    0    1.26e+00
2006 11 20  0425    54059   15900      0    1.75e+00    0    1.23e+00
2006 11 20  0430    54059   16200      0    1.76e+00    0    1.24e+00
2006 11 20  0435    54059   16500      0    1.81e+00    0    1.26e+00
2006 11 20  0440    54059   16800      0    1.74e+00    0    1.21e+00
2006 11 20  0445    54059   17100      0    1.78e+00    0    1.26e+00
2006 11 20  0450    54059   17400      0    1.77e+00    0    1.24e+00
2006 11 20  0455    54059   17700      0    1.79e+00    0    1.26e+00
2006 11 20  0500    54059   18000      0    1.77e+00    0    1.23e+00
2006 11 20  0505    54059   18300      0    1.75e+00    0    1.23e+00
2006 11 20  0510    54059   18600      0    1.78e+00    0    1.25e+00
2006 11 20  0515    54059   18900      0    1.73e+00    0    1.21e+00
2006 11 20  0520    54059   19200      0    1.76e+00    0    1.23e+00
2006 11 20  0525    54059   19500      0    1.81e+00    0    1.27e+00
2006 11 20  0530    54059   19800      0    1.77e+00    0    1.25e+00
2006 11 20  0535    54059   20100      0    1.80e+00    0    1.25e+00
2006 11 20  0540    54059   20400      0    1.80e+00    0    1.26e+00
2006 11 20  0545    54059   20700      0    1.77e+00    0    1.23e+00
2006 11 20  0550    54059   21000      0    1.80e+00    0    1.27e+00
2006 11 20  0555    54059   21300      0    1.80e+00    0    1.27e+00
2006 11 20  0600    54059   21600      0    1.72e+00    0    1.21e+00
2006 11 20  0605    54059   21900      0    1.77e+00    0    1.24e+00
2006 11 20  0610    54059   22200      0    1.78e+00    0    1.25e+00
2006 11 20  0615    54059   22500      0    1.81e+00    0    1.27e+00
2006 11 20  0620    54059   22800      0    1.80e+00    0    1.25e+00
2006 11 20  0625    54059   23100      0    1.84e+00    0    1.30e+00
2006 11 20  0630    54059   23400      0    1.77e+00    0    1.24e+00
2006 11 20  0635    54059   23700      0    1.77e+00    0    1.25e+00
2006 11 20  0640    54059   24000      0    1.80e+00    0    1.27e+00
2006 11 20  0645    54059   24300      0    1.79e+00    0    1.27e+00
2006 11 20  0650    54059   24600      0    1.79e+00    0    1.23e+00
2006 11 20  0655    54059   24900      0    1.78e+00    0    1.23e+00
2006 11 20  0700    54059   25200      0    1.75e+00    0    1.22e+00
2006 11 20  0705    54059   25500      0    1.71e+00    0    1.21e+00
2006 11 20  0710    54059   25800      0    1.80e+00    0    1.25e+00
2006 11 20  0715    54059   26100      0    1.78e+00    0    1.24e+00
2006 11 20  0720    54059   26400      0    1.78e+00    0    1.24e+00
2006 11 20  0725    54059   26700      0    1.80e+00    0    1.26e+00
2006 11 20  0730    54059   27000      0    1.80e+00    0    1.26e+00
2006 11 20  0735    54059   27300      0    1.80e+00    0    1.27e+00
2006 11 20  0740    54059   27600      0    1.81e+00    0    1.27e+00
2006 11 20  0745    54059   27900      0    1.79e+00    0    1.25e+00
2006 11 20  0750    54059   28200      0    1.78e+00    0    1.24e+00
2006 11 20  0755    54059   28500      0    1.85e+00    0    1.30e+00
2006 11 20  0800    54059   28800      0    1.79e+00    0    1.26e+00
2006 11 20  0805    54059   29100      0    1.80e+00    0    1.26e+00
2006 11 20  0810    54059   29400      0    1.83e+00    0    1.30e+00
2006 11 20  0815    54059   29700      0    1.78e+00    0    1.24e+00
2006 11 20  0820    54059   30000      0    1.78e+00    0    1.26e+00
2006 11 20  0825    54059   30300      0    1.79e+00    0    1.25e+00
2006 11 20  0830    54059   30600      0    1.80e+00    0    1.27e+00
2006 11 20  0835    54059   30900      0    1.79e+00    0    1.24e+00
2006 11 20  0840    54059   31200      0    1.73e+00    0    1.22e+00
2006 11 20  0845    54059   31500      0    1.78e+00    0    1.24e+00
2006 11 20  0850    54059   31800      0    1.77e+00    0    1.24e+00
2006 11 20  0855    54059   32100      0    1.76e+00    0    1.24e+00
2006 11 20  0900    54059   32400      0    1.79e+00    0    1.25e+00
2006 11 20  0905    54059   32700      0    1.81e+00    0    1.27e+00
2006 11 20  0910    54059   33000      0    1.77e+00    0    1.23e+00
2006 11 20  0915    54059   33300      0    1.76e+00    0    1.24e+00
2006 11 20  0920    54059   33600      0    1.78e+00    0    1.25e+00
2006 11 20  0925    54059   33900      0    1.76e+00    0    1.23e+00
2006 11 20  0930    54059   34200      0    1.83e+00    0    1.28e+00
2006 11 20  0935    54059   34500      0    1.84e+00    0    1.30e+00
2006 11 20  0940    54059   34800      0    1.78e+00    0    1.24e+00
2006 11 20  0945    54059   35100      0    1.79e+00    0    1.26e+00
2006 11 20  0950    54059   35400      0    1.76e+00    0    1.23e+00
2006 11 20  0955    54059   35700      0    1.79e+00    0    1.26e+00
2006 11 20  1000    54059   36000      0    1.78e+00    0    1.24e+00
2006 11 20  1005    54059   36300      0    1.76e+00    0    1.24e+00
2006 11 20  1010    54059   36600      0    1.81e+00    0    1.27e+00
2006 11 20  1015    54059   36900      0    1.80e+00    0    1.26e+00
2006 11 20  1020    54059   37200      0    1.81e+00    0    1.28e+00
2006 11 20  1025    54059   37500      0    1.80e+00    0    1.26e+00
2006 11 20  1030    54059   37800      0    1.73e+00    0    1.23e+00
2006 11 20  1035    54059   38100      0    1.77e+00    0    1.24e+00
2006 11 20  1040    54059   38400      0    1.80e+00    0    1.26e+00
2006 11 20  1045    54059   38700      0    1.76e+00    0    1.23e+00
2006 11 20  1050    54059   39000      0    1.73e+00    0    1.20e+00
2006 11 20  1055    54059   39300      0    1.77e+00    0    1.25e+00
2006 11 20  1100    54059   39600      0    1.75e+00    0    1.22e+00
2006 11 20  1105    54059   39900      0    1.79e+00    0    1.25e+00
2006 11 20  1110    54059   40200      0    1.75e+00    0    1.23e+00
2006 11 20  1115    54059   40500      0    1.78e+00    0    1.25e+00
2006 11 20  1120    54059   40800      0    1.77e+00    0    1.25e+00
2006 11 20  1125    54059   41100      0    1.71e+00    0    1.19e+00
2006 11 20  1130    54059   41400      0    1.77e+00    0    1.23e+00
2006 11 20  1135    54059   41700      0    1.75e+00    0    1.23e+00
2006 11 20  1140    54059   42000      0    1.79e+00    0    1.24e+00
2006 11 20  1145    54059   42300      0    1.76e+00    0    1.22e+00
2006 11 20  1150    54059   42600      0    1.74e+00    0    1.22e+00
2006 11 20  1155    54059   42900      0    1.76e+00    0    1.22e+00
2006 11 20  1200    54059   43200      0    1.77e+00    0    1.23e+00
2006 11 20  1205    54059   43500      0    1.83e+00    0    1.30e+00
2006 11 20  1210    54059   43800      0    1.77e+00    0    1.24e+00
2006 11 20  1215    54059   44100      0    1.77e+00    0    1.24e+00
2006 11 20  1220    54059   44400      0    1.80e+00    0    1.25e+00
2006 11 20  1225    54059   44700      0    1.76e+00    0    1.23e+00
2006 11 20  1230    54059   45000      0    1.75e+00    0    1.23e+00
2006 11 20  1235    54059   45300      0    1.77e+00    0    1.25e+00
2006 11 20  1240    54059   45600      0    1.79e+00    0    1.25e+00
2006 11 20  1245    54059   45900      0    1.75e+00    0    1.22e+00
2006 11 20  1250    54059   46200      0    1.80e+00    0    1.27e+00
2006 11 20  1255    54059   46500      0    1.77e+00    0    1.25e+00
2006 11 20  1300    54059   46800      0    1.73e+00    0    1.20e+00
2006 11 20  1305    54059   47100      0    1.75e+00    0    1.23e+00
2006 11 20  1310    54059   47400      0    1.80e+00    0    1.25e+00
2006 11 20  1315    54059   47700      0    1.74e+00    0    1.21e+00
2006 11 20  1320    54059   48000      0    1.78e+00    0    1.25e+00
2006 11 20  1325    54059   48300      0    1.77e+00    0    1.24e+00
2006 11 20  1330    54059   48600      0    1.80e+00    0    1.27e+00
2006 11 20  1335    54059   48900      0    1.79e+00    0    1.27e+00
2006 11 20  1340    54059   49200      0    1.78e+00    0    1.24e+00
2006 11 20  1345    54059   49500      0    1.76e+00    0    1.24e+00
2006 11 20  1350    54059   49800      0    1.79e+00    0    1.24e+00
2006 11 20  1355    54059   50100      0    1.78e+00    0    1.26e+00
2006 11 20  1400    54059   50400      0    1.78e+00    0    1.24e+00
2006 11 20  1405    54059   50700      0    1.81e+00    0    1.26e+00
2006 11 20  1410    54059   51000      0    1.77e+00    0    1.24e+00
2006 11 20  1415    54059   51300      0    1.80e+00    0    1.27e+00
2006 11 20  1420    54059   51600      0    1.73e+00    0    1.21e+00
2006 11 20  1425    54059   51900      0    1.78e+00    0    1.24e+00
2006 11 20  1430    54059   52200      0    1.77e+00    0    1.24e+00
2006 11 20  1435    54059   52500      0    1.77e+00    0    1.23e+00
2006 11 20  1440    54059   52800      0    1.75e+00    0    1.22e+00
2006 11 20  1445    54059   53100      0    1.79e+00    0    1.25e+00
2006 11 20  1450    54059   53400      0    1.79e+00    0    1.24e+00
2006 11 20  1455    54059   53700      0    1.78e+00    0    1.25e+00
2006 11 20  1500    54059   54000      0    1.75e+00    0    1.23e+00
2006 11 20  1505    54059   54300      0    1.72e+00    0    1.19e+00
2006 11 20  1510    54059   54600      0    1.74e+00    0    1.22e+00
2006 11 20  1515    54059   54900      0    1.76e+00    0    1.23e+00
2006 11 20  1520    54059   55200      0    1.77e+00    0    1.23e+00
2006 11 20  1525    54059   55500      0    1.79e+00    0    1.25e+00
2006 11 20  1530    54059   55800      0    1.75e+00    0    1.23e+00
2006 11 20  1535    54059   56100      0    1.74e+00    0    1.22e+00
2006 11 20  1540    54059   56400      0    1.78e+00    0    1.24e+00
2006 11 20  1545    54059   56700      0    1.79e+00    0    1.25e+00
2006 11 20  1550    54059   57000      0    1.78e+00    0    1.25e+00
2006 11 20  1555    54059   57300      9   -1.00e+05    9   -1.00e+05
2006 11 20  1600    54059   57600      9   -1.00e+05    9   -1.00e+05
2006 11 20  1605    54059   57900      9   -1.00e+05    9   -1.00e+05
2006 11 20  1610    54059   58200      0    1.78e+00    0    1.23e+00
2006 11 20  1615    54059   58500      0    1.75e+00    0    1.22e+00
2006 11 20  1620    54059   58800      0    1.77e+00    0    1.25e+00
2006 11 20  1625    54059   59100      0    1.78e+00    0    1.25e+00
2006 11 20  1630    54059   59400      0    1.78e+00    0    1.24e+00
2006 11 20  1635    54059   59700      0    1.75e+00    0    1.21e+00
2006 11 20  1640    54059   60000      0    1.79e+00    0    1.25e+00
2006 11 20  1645    54059   60300      0    1.73e+00    0    1.20e+00
2006 11 20  1650    54059   60600      0    1.78e+00    0    1.26e+00
2006 11 20  1655    54059   60900      0    1.78e+00    0    1.25e+00
2006 11 20  1700    54059   61200      0    1.75e+00    0    1.22e+00
2006 11 20  1705    54059   61500      0    1.78e+00    0    1.25e+00
2006 11 20  1710    54059   61800      9   -1.00e+05    9   -1.00e+05
2006 11 20  1715    54059   62100      0    1.75e+00    0    1.24e+00
2006 11 20  1720    54059   62400      0    1.76e+00    0    1.24e+00
2006 11 20  1725    54059   62700      0    1.79e+00    0    1.25e+00
2006 11 20  1730    54059   63000      0    1.76e+00    0    1.23e+00
2006 11 20  1735    54059   63300      0    1.75e+00    0    1.22e+00
2006 11 20  1740    54059   63600      0    1.72e+00    0    1.20e+00
2006 11 20  1745    54059   63900      0    1.80e+00    0    1.25e+00
2006 11 20  1750    54059   64200      0    1.79e+00    0    1.26e+00
2006 11 20  1755    54059   64500      9   -1.00e+05    9   -1.00e+05
2006 11 20  1800    54059   64800      0    1.85e+00    0    1.28e+00
2006 11 20  1805    54059   65100      0    1.76e+00    0    1.24e+00
2006 11 20  1810    54059   65400      0    1.81e+00    0    1.26e+00
2006 11 20  1815    54059   65700      0    1.76e+00    0    1.22e+00
2006 11 20  1820    54059   66000      0    1.76e+00    0    1.22e+00
2006 11 20  1825    54059   66300      0    1.77e+00    0    1.25e+00
2006 11 20  1830    54059   66600      0    1.77e+00    0    1.24e+00
2006 11 20  1835    54059   66900      0    1.82e+00    0    1.28e+00
2006 11 20  1840    54059   67200      0    1.81e+00    0    1.27e+00
2006 11 20  1845    54059   67500      0    1.77e+00    0    1.24e+00
2006 11 20  1850    54059   67800      0    1.75e+00    0    1.23e+00
2006 11 20  1855    54059   68100      0    1.75e+00    0    1.23e+00
2006 11 20  1900    54059   68400      0    1.75e+00    0    1.22e+00
2006 11 20  1905    54059   68700      0    1.79e+00    0    1.25e+00
2006 11 20  1910    54059   69000      0    1.77e+00    0    1.24e+00
2006 11 20  1915    54059   69300      0    1.76e+00    0    1.24e+00
2006 11 20  1920    54059   69600      0    1.74e+00    0    1.21e+00
2006 11 20  1925    54059   69900      0    1.75e+00    0    1.23e+00
2006 11 20  1930    54059   70200      0    1.76e+00    0    1.24e+00
2006 11 20  1935    54059   70500      0    1.77e+00    0    1.23e+00
2006 11 20  1940    54059   70800      0    1.78e+00    0    1.24e+00
2006 11 20  1945    54059   71100      0    1.74e+00    0    1.22e+00
2006 11 20  1950    54059   71400      0    1.77e+00    0    1.24e+00
2006 11 20  1955    54059   71700      0    1.76e+00    0    1.24e+00
2006 11 20  2000    54059   72000      0    1.78e+00    0    1.23e+00
2006 11 20  2005    54059   72300      0    1.76e+00    0    1.23e+00
2006 11 20  2010    54059   72600      0    1.74e+00    0    1.23e+00
2006 11 20  2015    54059   72900      0    1.74e+00    0    1.20e+00
2006 11 20  2020    54059   73200      0    1.70e+00    0    1.19e+00
2006 11 20  2025    54059   73500      0    1.76e+00    0    1.22e+00
2006 11 20  2030    54059   73800      0    1.79e+00    0    1.27e+00
2006 11 20  2035    54059   74100      0    1.76e+00    0    1.24e+00
2006 11 20  2040    54059   74400      0    1.76e+00    0    1.22e+00
2006 11 20  2045    54059   74700      9   -1.00e+05    9   -1.00e+05
2006 11 20  2050    54059   75000      9   -1.00e+05    9   -1.00e+05
2006 11 20  2055    54059   75300      9   -1.00e+05    9   -1.00e+05
2006 11 20  2100    54059   75600      9   -1.00e+05    9   -1.00e+05
2006 11 20  2105    54059   75900      9   -1.00e+05    9   -1.00e+05
2006 11 20  2110    54059   76200      9   -1.00e+05    9   -1.00e+05
2006 11 20  2115    54059   76500      9   -1.00e+05    9   -1.00e+05
2006 11 20  2120    54059   76800      9   -1.00e+05    9   -1.00e+05
2006 11 20  2125    54059   77100      9   -1.00e+05    9   -1.00e+05
2006 11 20  2130    54059   77400      0    1.84e+00    0    1.31e+00
2006 11 20  2135    54059   77700      0    1.73e+00    0    1.21e+00
2006 11 20  2140    54059   78000      0    1.82e+00    0    1.27e+00
2006 11 20  2145    54059   78300      0    1.79e+00    0    1.25e+00
2006 11 20  2150    54059   78600      0    1.77e+00    0    1.25e+00
2006 11 20  2155    54059   78900      0    1.77e+00    0    1.24e+00
2006 11 20  2200    54059   79200      0    1.79e+00    0    1.25e+00
2006 11 20  2205    54059   79500      0    1.78e+00    0    1.25e+00
2006 11 20  2210    54059   79800      0    1.77e+00    0    1.25e+00
2006 11 20  2215    54059   80100      0    1.75e+00    0    1.22e+00
2006 11 20  2220    54059   80400      0    1.80e+00    0    1.28e+00
2006 11 20  2225    54059   80700      0    1.80e+00    0    1.27e+00
2006 11 20  2230    54059   81000      0    1.75e+00    0    1.21e+00
2006 11 20  2235    54059   81300      0    1.79e+00    0    1.24e+00
2006 11 20  2240    54059   81600      0    1.77e+00    0    1.24e+00
2006 11 20  2245    54059   81900      0    1.78e+00    0    1.24e+00
2006 11 20  2250    54059   82200      0    1.76e+00    0    1.24e+00
2006 11 20  2255    54059   82500      0    1.77e+00    0    1.23e+00
2006 11 20  2300    54059   82800      0    1.81e+00    0    1.27e+00
2006 11 20  2305    54059   83100      0    1.82e+00    0    1.27e+00
2006 11 20  2310    54059   83400      0    1.78e+00    0    1.24e+00
2006 11 20  2315    54059   83700      0    1.79e+00    0    1.26e+00
2006 11 20  2320    54059   84000      0    1.83e+00    0    1.29e+00
2006 11 20  2325    54059   84300      0    1.79e+00    0    1.25e+00
2006 11 20  2330    54059   84600      0    1.76e+00    0    1.23e+00
2006 11 20  2335    54059   84900      0    1.78e+00    0    1.25e+00
2006 11 20  2340    54059   85200      0    1.77e+00    0    1.25e+00
2006 11 20  2345    54059   85500      0    1.82e+00    0    1.28e+00
2006 11 20  2350    54059   85800      0    1.77e+00    0    1.25e+00
2006 11 20  2355    54059   86100      0    1.78e+00    0    1.24e+00
