:Data_list: 20060917_ace_sis_5m.txt
:Created: 2006 Sep 18 0011 UT
# Prepared by the U.S. Dept. of Commerce, NOAA, Space Environment Center.
# Please send comments and suggestions to SEC.Webmaster@noaa.gov 
# 
# Units: proton flux p/cs2-sec-ster
# Status(S): 0 = nominal data, 1 to 8 = bad data record, 9 = no data
# Missing data values: -1.00e+05
# Source: ACE Satellite - Solar Isotope Spectrometer
#
# 5-minute averaged Real-time Integral Flux of High-energy Solar Protons
# 
#                 Modified Seconds
# UT Date   Time   Julian  of the      ---- Integral Proton Flux ----
# YR MO DA  HHMM     Day     Day       S    > 10 MeV    S    > 30 MeV
#--------------------------------------------------------------------
2006 09 17  0000    53995       0      0    1.66e+00    0    1.15e+00
2006 09 17  0005    53995     300      0    1.68e+00    0    1.19e+00
2006 09 17  0010    53995     600      0    1.67e+00    0    1.17e+00
2006 09 17  0015    53995     900      0    1.73e+00    0    1.21e+00
2006 09 17  0020    53995    1200      0    1.73e+00    0    1.19e+00
2006 09 17  0025    53995    1500      0    1.70e+00    0    1.18e+00
2006 09 17  0030    53995    1800      0    1.67e+00    0    1.17e+00
2006 09 17  0035    53995    2100      0    1.69e+00    0    1.19e+00
2006 09 17  0040    53995    2400      0    1.71e+00    0    1.20e+00
2006 09 17  0045    53995    2700      0    1.70e+00    0    1.19e+00
2006 09 17  0050    53995    3000      0    1.75e+00    0    1.23e+00
2006 09 17  0055    53995    3300      0    1.68e+00    0    1.18e+00
2006 09 17  0100    53995    3600      0    1.70e+00    0    1.18e+00
2006 09 17  0105    53995    3900      0    1.73e+00    0    1.23e+00
2006 09 17  0110    53995    4200      0    1.72e+00    0    1.21e+00
2006 09 17  0115    53995    4500      0    1.72e+00    0    1.22e+00
2006 09 17  0120    53995    4800      0    1.72e+00    0    1.20e+00
2006 09 17  0125    53995    5100      0    1.71e+00    0    1.19e+00
2006 09 17  0130    53995    5400      0    1.71e+00    0    1.19e+00
2006 09 17  0135    53995    5700      0    1.72e+00    0    1.22e+00
2006 09 17  0140    53995    6000      0    1.69e+00    0    1.18e+00
2006 09 17  0145    53995    6300      0    1.68e+00    0    1.18e+00
2006 09 17  0150    53995    6600      0    1.70e+00    0    1.19e+00
2006 09 17  0155    53995    6900      0    1.71e+00    0    1.20e+00
2006 09 17  0200    53995    7200      0    1.69e+00    0    1.18e+00
2006 09 17  0205    53995    7500      0    1.69e+00    0    1.18e+00
2006 09 17  0210    53995    7800      0    1.67e+00    0    1.17e+00
2006 09 17  0215    53995    8100      0    1.73e+00    0    1.20e+00
2006 09 17  0220    53995    8400      0    1.72e+00    0    1.20e+00
2006 09 17  0225    53995    8700      0    1.70e+00    0    1.19e+00
2006 09 17  0230    53995    9000      0    1.72e+00    0    1.21e+00
2006 09 17  0235    53995    9300      0    1.69e+00    0    1.16e+00
2006 09 17  0240    53995    9600      0    1.71e+00    0    1.20e+00
2006 09 17  0245    53995    9900      0    1.72e+00    0    1.20e+00
2006 09 17  0250    53995   10200      0    1.69e+00    0    1.18e+00
2006 09 17  0255    53995   10500      0    1.70e+00    0    1.19e+00
2006 09 17  0300    53995   10800      0    1.72e+00    0    1.22e+00
2006 09 17  0305    53995   11100      0    1.70e+00    0    1.20e+00
2006 09 17  0310    53995   11400      0    1.68e+00    0    1.18e+00
2006 09 17  0315    53995   11700      0    1.70e+00    0    1.20e+00
2006 09 17  0320    53995   12000      0    1.67e+00    0    1.18e+00
2006 09 17  0325    53995   12300      0    1.66e+00    0    1.16e+00
2006 09 17  0330    53995   12600      0    1.72e+00    0    1.21e+00
2006 09 17  0335    53995   12900      0    1.72e+00    0    1.21e+00
2006 09 17  0340    53995   13200      0    1.74e+00    0    1.23e+00
2006 09 17  0345    53995   13500      0    1.71e+00    0    1.20e+00
2006 09 17  0350    53995   13800      0    1.73e+00    0    1.22e+00
2006 09 17  0355    53995   14100      0    1.70e+00    0    1.19e+00
2006 09 17  0400    53995   14400      0    1.71e+00    0    1.20e+00
2006 09 17  0405    53995   14700      0    1.69e+00    0    1.19e+00
2006 09 17  0410    53995   15000      0    1.70e+00    0    1.18e+00
2006 09 17  0415    53995   15300      0    1.71e+00    0    1.21e+00
2006 09 17  0420    53995   15600      0    1.72e+00    0    1.20e+00
2006 09 17  0425    53995   15900      0    1.70e+00    0    1.19e+00
2006 09 17  0430    53995   16200      0    1.71e+00    0    1.20e+00
2006 09 17  0435    53995   16500      0    1.71e+00    0    1.20e+00
2006 09 17  0440    53995   16800      0    1.70e+00    0    1.19e+00
2006 09 17  0445    53995   17100      0    1.73e+00    0    1.21e+00
2006 09 17  0450    53995   17400      0    1.70e+00    0    1.19e+00
2006 09 17  0455    53995   17700      0    1.68e+00    0    1.17e+00
2006 09 17  0500    53995   18000      0    1.71e+00    0    1.20e+00
2006 09 17  0505    53995   18300      0    1.73e+00    0    1.22e+00
2006 09 17  0510    53995   18600      9   -1.00e+05    9   -1.00e+05
2006 09 17  0515    53995   18900      0    1.73e+00    0    1.22e+00
2006 09 17  0520    53995   19200      0    1.73e+00    0    1.21e+00
2006 09 17  0525    53995   19500      0    1.71e+00    0    1.20e+00
2006 09 17  0530    53995   19800      0    1.73e+00    0    1.21e+00
2006 09 17  0535    53995   20100      0    1.72e+00    0    1.21e+00
2006 09 17  0540    53995   20400      0    1.71e+00    0    1.20e+00
2006 09 17  0545    53995   20700      0    1.74e+00    0    1.23e+00
2006 09 17  0550    53995   21000      0    1.68e+00    0    1.18e+00
2006 09 17  0555    53995   21300      0    1.69e+00    0    1.18e+00
2006 09 17  0600    53995   21600      0    1.69e+00    0    1.19e+00
2006 09 17  0605    53995   21900      0    1.70e+00    0    1.21e+00
2006 09 17  0610    53995   22200      0    1.76e+00    0    1.25e+00
2006 09 17  0615    53995   22500      0    1.68e+00    0    1.17e+00
2006 09 17  0620    53995   22800      0    1.69e+00    0    1.18e+00
2006 09 17  0625    53995   23100      0    1.73e+00    0    1.21e+00
2006 09 17  0630    53995   23400      0    1.69e+00    0    1.19e+00
2006 09 17  0635    53995   23700      0    1.70e+00    0    1.19e+00
2006 09 17  0640    53995   24000      0    1.71e+00    0    1.19e+00
2006 09 17  0645    53995   24300      0    1.71e+00    0    1.21e+00
2006 09 17  0650    53995   24600      0    1.68e+00    0    1.17e+00
2006 09 17  0655    53995   24900      0    1.71e+00    0    1.21e+00
2006 09 17  0700    53995   25200      0    1.70e+00    0    1.19e+00
2006 09 17  0705    53995   25500      0    1.67e+00    0    1.17e+00
2006 09 17  0710    53995   25800      0    1.67e+00    0    1.17e+00
2006 09 17  0715    53995   26100      0    1.73e+00    0    1.22e+00
2006 09 17  0720    53995   26400      0    1.71e+00    0    1.20e+00
2006 09 17  0725    53995   26700      0    1.69e+00    0    1.17e+00
2006 09 17  0730    53995   27000      0    1.72e+00    0    1.20e+00
2006 09 17  0735    53995   27300      0    1.67e+00    0    1.17e+00
2006 09 17  0740    53995   27600      0    1.67e+00    0    1.19e+00
2006 09 17  0745    53995   27900      0    1.70e+00    0    1.18e+00
2006 09 17  0750    53995   28200      0    1.72e+00    0    1.20e+00
2006 09 17  0755    53995   28500      0    1.66e+00    0    1.16e+00
2006 09 17  0800    53995   28800      0    1.73e+00    0    1.21e+00
2006 09 17  0805    53995   29100      0    1.73e+00    0    1.23e+00
2006 09 17  0810    53995   29400      0    1.71e+00    0    1.19e+00
2006 09 17  0815    53995   29700      0    1.68e+00    0    1.18e+00
2006 09 17  0820    53995   30000      0    1.70e+00    0    1.21e+00
2006 09 17  0825    53995   30300      0    1.66e+00    0    1.17e+00
2006 09 17  0830    53995   30600      0    1.69e+00    0    1.18e+00
2006 09 17  0835    53995   30900      0    1.70e+00    0    1.19e+00
2006 09 17  0840    53995   31200      0    1.68e+00    0    1.17e+00
2006 09 17  0845    53995   31500      0    1.68e+00    0    1.17e+00
2006 09 17  0850    53995   31800      0    1.70e+00    0    1.18e+00
2006 09 17  0855    53995   32100      0    1.68e+00    0    1.17e+00
2006 09 17  0900    53995   32400      0    1.70e+00    0    1.19e+00
2006 09 17  0905    53995   32700      0    1.70e+00    0    1.20e+00
2006 09 17  0910    53995   33000      0    1.72e+00    0    1.20e+00
2006 09 17  0915    53995   33300      0    1.70e+00    0    1.20e+00
2006 09 17  0920    53995   33600      0    1.60e+00    0    1.12e+00
2006 09 17  0925    53995   33900      0    1.72e+00    0    1.21e+00
2006 09 17  0930    53995   34200      0    1.67e+00    0    1.17e+00
2006 09 17  0935    53995   34500      0    1.69e+00    0    1.19e+00
2006 09 17  0940    53995   34800      0    1.71e+00    0    1.19e+00
2006 09 17  0945    53995   35100      0    1.68e+00    0    1.17e+00
2006 09 17  0950    53995   35400      0    1.68e+00    0    1.17e+00
2006 09 17  0955    53995   35700      0    1.73e+00    0    1.22e+00
2006 09 17  1000    53995   36000      0    1.69e+00    0    1.18e+00
2006 09 17  1005    53995   36300      0    1.70e+00    0    1.18e+00
2006 09 17  1010    53995   36600      0    1.69e+00    0    1.19e+00
2006 09 17  1015    53995   36900      0    1.66e+00    0    1.17e+00
2006 09 17  1020    53995   37200      0    1.66e+00    0    1.16e+00
2006 09 17  1025    53995   37500      0    1.71e+00    0    1.20e+00
2006 09 17  1030    53995   37800      0    1.71e+00    0    1.20e+00
2006 09 17  1035    53995   38100      0    1.69e+00    0    1.19e+00
2006 09 17  1040    53995   38400      0    1.69e+00    0    1.17e+00
2006 09 17  1045    53995   38700      0    1.67e+00    0    1.17e+00
2006 09 17  1050    53995   39000      0    1.71e+00    0    1.21e+00
2006 09 17  1055    53995   39300      0    1.68e+00    0    1.18e+00
2006 09 17  1100    53995   39600      0    1.67e+00    0    1.18e+00
2006 09 17  1105    53995   39900      0    1.72e+00    0    1.21e+00
2006 09 17  1110    53995   40200      0    1.69e+00    0    1.17e+00
2006 09 17  1115    53995   40500      0    1.70e+00    0    1.20e+00
2006 09 17  1120    53995   40800      0    1.74e+00    0    1.24e+00
2006 09 17  1125    53995   41100      0    1.71e+00    0    1.20e+00
2006 09 17  1130    53995   41400      0    1.67e+00    0    1.16e+00
2006 09 17  1135    53995   41700      0    1.66e+00    0    1.17e+00
2006 09 17  1140    53995   42000      0    1.69e+00    0    1.19e+00
2006 09 17  1145    53995   42300      0    1.69e+00    0    1.18e+00
2006 09 17  1150    53995   42600      0    1.70e+00    0    1.20e+00
2006 09 17  1155    53995   42900      0    1.73e+00    0    1.21e+00
2006 09 17  1200    53995   43200      0    1.70e+00    0    1.19e+00
2006 09 17  1205    53995   43500      0    1.70e+00    0    1.19e+00
2006 09 17  1210    53995   43800      0    1.72e+00    0    1.20e+00
2006 09 17  1215    53995   44100      0    1.70e+00    0    1.19e+00
2006 09 17  1220    53995   44400      0    1.69e+00    0    1.18e+00
2006 09 17  1225    53995   44700      0    1.69e+00    0    1.17e+00
2006 09 17  1230    53995   45000      0    1.68e+00    0    1.19e+00
2006 09 17  1235    53995   45300      0    1.68e+00    0    1.18e+00
2006 09 17  1240    53995   45600      0    1.69e+00    0    1.20e+00
2006 09 17  1245    53995   45900      0    1.69e+00    0    1.18e+00
2006 09 17  1250    53995   46200      0    1.71e+00    0    1.21e+00
2006 09 17  1255    53995   46500      0    1.67e+00    0    1.17e+00
2006 09 17  1300    53995   46800      0    1.67e+00    0    1.18e+00
2006 09 17  1305    53995   47100      0    1.65e+00    0    1.15e+00
2006 09 17  1310    53995   47400      0    1.66e+00    0    1.17e+00
2006 09 17  1315    53995   47700      0    1.70e+00    0    1.19e+00
2006 09 17  1320    53995   48000      0    1.69e+00    0    1.18e+00
2006 09 17  1325    53995   48300      0    1.71e+00    0    1.19e+00
2006 09 17  1330    53995   48600      0    1.67e+00    0    1.17e+00
2006 09 17  1335    53995   48900      0    1.69e+00    0    1.18e+00
2006 09 17  1340    53995   49200      0    1.65e+00    0    1.16e+00
2006 09 17  1345    53995   49500      0    1.69e+00    0    1.19e+00
2006 09 17  1350    53995   49800      0    1.67e+00    0    1.17e+00
2006 09 17  1355    53995   50100      0    1.65e+00    0    1.16e+00
2006 09 17  1400    53995   50400      0    1.69e+00    0    1.18e+00
2006 09 17  1405    53995   50700      0    1.73e+00    0    1.21e+00
2006 09 17  1410    53995   51000      0    1.69e+00    0    1.18e+00
2006 09 17  1415    53995   51300      0    1.69e+00    0    1.18e+00
2006 09 17  1420    53995   51600      0    1.68e+00    0    1.17e+00
2006 09 17  1425    53995   51900      0    1.71e+00    0    1.19e+00
2006 09 17  1430    53995   52200      0    1.67e+00    0    1.16e+00
2006 09 17  1435    53995   52500      0    1.68e+00    0    1.18e+00
2006 09 17  1440    53995   52800      0    1.70e+00    0    1.20e+00
2006 09 17  1445    53995   53100      0    1.64e+00    0    1.15e+00
2006 09 17  1450    53995   53400      0    1.66e+00    0    1.16e+00
2006 09 17  1455    53995   53700      0    1.67e+00    0    1.17e+00
2006 09 17  1500    53995   54000      0    1.67e+00    0    1.17e+00
2006 09 17  1505    53995   54300      0    1.73e+00    0    1.22e+00
2006 09 17  1510    53995   54600      0    1.68e+00    0    1.18e+00
2006 09 17  1515    53995   54900      0    1.65e+00    0    1.16e+00
2006 09 17  1520    53995   55200      0    1.69e+00    0    1.17e+00
2006 09 17  1525    53995   55500      0    1.67e+00    0    1.17e+00
2006 09 17  1530    53995   55800      0    1.66e+00    0    1.16e+00
2006 09 17  1535    53995   56100      0    1.66e+00    0    1.17e+00
2006 09 17  1540    53995   56400      0    1.67e+00    0    1.18e+00
2006 09 17  1545    53995   56700      0    1.66e+00    0    1.16e+00
2006 09 17  1550    53995   57000      0    1.69e+00    0    1.19e+00
2006 09 17  1555    53995   57300      0    1.66e+00    0    1.17e+00
2006 09 17  1600    53995   57600      0    1.68e+00    0    1.18e+00
2006 09 17  1605    53995   57900      0    1.67e+00    0    1.18e+00
2006 09 17  1610    53995   58200      0    1.66e+00    0    1.17e+00
2006 09 17  1615    53995   58500      0    1.69e+00    0    1.19e+00
2006 09 17  1620    53995   58800      0    1.70e+00    0    1.19e+00
2006 09 17  1625    53995   59100      0    1.69e+00    0    1.18e+00
2006 09 17  1630    53995   59400      0    1.65e+00    0    1.16e+00
2006 09 17  1635    53995   59700      0    1.68e+00    0    1.18e+00
2006 09 17  1640    53995   60000      0    1.71e+00    0    1.20e+00
2006 09 17  1645    53995   60300      0    1.67e+00    0    1.16e+00
2006 09 17  1650    53995   60600      0    1.70e+00    0    1.19e+00
2006 09 17  1655    53995   60900      0    1.71e+00    0    1.19e+00
2006 09 17  1700    53995   61200      0    1.69e+00    0    1.17e+00
2006 09 17  1705    53995   61500      0    1.68e+00    0    1.18e+00
2006 09 17  1710    53995   61800      0    1.66e+00    0    1.16e+00
2006 09 17  1715    53995   62100      0    1.66e+00    0    1.16e+00
2006 09 17  1720    53995   62400      0    1.68e+00    0    1.18e+00
2006 09 17  1725    53995   62700      0    1.68e+00    0    1.18e+00
2006 09 17  1730    53995   63000      0    1.63e+00    0    1.14e+00
2006 09 17  1735    53995   63300      0    1.72e+00    0    1.20e+00
2006 09 17  1740    53995   63600      0    1.67e+00    0    1.18e+00
2006 09 17  1745    53995   63900      0    1.67e+00    0    1.17e+00
2006 09 17  1750    53995   64200      0    1.66e+00    0    1.17e+00
2006 09 17  1755    53995   64500      0    1.65e+00    0    1.15e+00
2006 09 17  1800    53995   64800      0    1.66e+00    0    1.17e+00
2006 09 17  1805    53995   65100      0    1.68e+00    0    1.19e+00
2006 09 17  1810    53995   65400      0    1.68e+00    0    1.18e+00
2006 09 17  1815    53995   65700      0    1.65e+00    0    1.15e+00
2006 09 17  1820    53995   66000      0    1.68e+00    0    1.17e+00
2006 09 17  1825    53995   66300      0    1.69e+00    0    1.19e+00
2006 09 17  1830    53995   66600      0    1.66e+00    0    1.17e+00
2006 09 17  1835    53995   66900      0    1.69e+00    0    1.17e+00
2006 09 17  1840    53995   67200      0    1.68e+00    0    1.17e+00
2006 09 17  1845    53995   67500      0    1.69e+00    0    1.18e+00
2006 09 17  1850    53995   67800      0    1.70e+00    0    1.19e+00
2006 09 17  1855    53995   68100      0    1.66e+00    0    1.16e+00
2006 09 17  1900    53995   68400      0    1.71e+00    0    1.20e+00
2006 09 17  1905    53995   68700      0    1.67e+00    0    1.18e+00
2006 09 17  1910    53995   69000      0    1.57e+00    0    1.09e+00
2006 09 17  1915    53995   69300      0    1.70e+00    0    1.19e+00
2006 09 17  1920    53995   69600      0    1.66e+00    0    1.16e+00
2006 09 17  1925    53995   69900      0    1.59e+00    0    1.11e+00
2006 09 17  1930    53995   70200      0    1.66e+00    0    1.16e+00
2006 09 17  1935    53995   70500      0    1.64e+00    0    1.13e+00
2006 09 17  1940    53995   70800      0    1.67e+00    0    1.16e+00
2006 09 17  1945    53995   71100      0    1.68e+00    0    1.17e+00
2006 09 17  1950    53995   71400      0    1.66e+00    0    1.17e+00
2006 09 17  1955    53995   71700      0    1.68e+00    0    1.19e+00
2006 09 17  2000    53995   72000      0    1.64e+00    0    1.16e+00
2006 09 17  2005    53995   72300      0    1.68e+00    0    1.18e+00
2006 09 17  2010    53995   72600      0    1.68e+00    0    1.17e+00
2006 09 17  2015    53995   72900      0    1.68e+00    0    1.17e+00
2006 09 17  2020    53995   73200      0    1.66e+00    0    1.16e+00
2006 09 17  2025    53995   73500      0    1.66e+00    0    1.18e+00
2006 09 17  2030    53995   73800      0    1.66e+00    0    1.15e+00
2006 09 17  2035    53995   74100      0    1.63e+00    0    1.13e+00
2006 09 17  2040    53995   74400      0    1.66e+00    0    1.16e+00
2006 09 17  2045    53995   74700      0    1.64e+00    0    1.15e+00
2006 09 17  2050    53995   75000      0    1.66e+00    0    1.17e+00
2006 09 17  2055    53995   75300      0    1.64e+00    0    1.15e+00
2006 09 17  2100    53995   75600      0    1.64e+00    0    1.15e+00
2006 09 17  2105    53995   75900      0    1.63e+00    0    1.14e+00
2006 09 17  2110    53995   76200      0    1.63e+00    0    1.15e+00
2006 09 17  2115    53995   76500      0    1.64e+00    0    1.15e+00
2006 09 17  2120    53995   76800      0    1.66e+00    0    1.16e+00
2006 09 17  2125    53995   77100      0    1.66e+00    0    1.17e+00
2006 09 17  2130    53995   77400      0    1.61e+00    0    1.13e+00
2006 09 17  2135    53995   77700      0    1.63e+00    0    1.14e+00
2006 09 17  2140    53995   78000      0    1.71e+00    0    1.19e+00
2006 09 17  2145    53995   78300      0    1.65e+00    0    1.16e+00
2006 09 17  2150    53995   78600      0    1.65e+00    0    1.17e+00
2006 09 17  2155    53995   78900      0    1.67e+00    0    1.17e+00
2006 09 17  2200    53995   79200      0    1.66e+00    0    1.15e+00
2006 09 17  2205    53995   79500      0    1.64e+00    0    1.15e+00
2006 09 17  2210    53995   79800      0    1.66e+00    0    1.16e+00
2006 09 17  2215    53995   80100      0    1.63e+00    0    1.15e+00
2006 09 17  2220    53995   80400      0    1.62e+00    0    1.12e+00
2006 09 17  2225    53995   80700      0    1.64e+00    0    1.15e+00
2006 09 17  2230    53995   81000      0    1.68e+00    0    1.18e+00
2006 09 17  2235    53995   81300      0    1.65e+00    0    1.15e+00
2006 09 17  2240    53995   81600      0    1.65e+00    0    1.15e+00
2006 09 17  2245    53995   81900      0    1.64e+00    0    1.17e+00
2006 09 17  2250    53995   82200      0    1.63e+00    0    1.15e+00
2006 09 17  2255    53995   82500      0    1.64e+00    0    1.14e+00
2006 09 17  2300    53995   82800      0    1.64e+00    0    1.15e+00
2006 09 17  2305    53995   83100      0    1.66e+00    0    1.17e+00
2006 09 17  2310    53995   83400      0    1.66e+00    0    1.15e+00
2006 09 17  2315    53995   83700      0    1.69e+00    0    1.20e+00
2006 09 17  2320    53995   84000      0    1.65e+00    0    1.16e+00
2006 09 17  2325    53995   84300      0    1.65e+00    0    1.15e+00
2006 09 17  2330    53995   84600      0    1.70e+00    0    1.19e+00
2006 09 17  2335    53995   84900      0    1.64e+00    0    1.14e+00
2006 09 17  2340    53995   85200      0    1.64e+00    0    1.14e+00
2006 09 17  2345    53995   85500      0    1.63e+00    0    1.13e+00
2006 09 17  2350    53995   85800      0    1.68e+00    0    1.17e+00
2006 09 17  2355    53995   86100      0    1.64e+00    0    1.15e+00
