:Data_list: 20060423_ace_sis_5m.txt
:Created: 2006 Apr 24 0011 UT
# Prepared by the U.S. Dept. of Commerce, NOAA, Space Environment Center.
# Please send comments and suggestions to SEC.Webmaster@noaa.gov 
# 
# Units: proton flux p/cs2-sec-ster
# Status(S): 0 = nominal data, 1 to 8 = bad data record, 9 = no data
# Missing data values: -1.00e+05
# Source: ACE Satellite - Solar Isotope Spectrometer
#
# 5-minute averaged Real-time Integral Flux of High-energy Solar Protons
# 
#                 Modified Seconds
# UT Date   Time   Julian  of the      ---- Integral Proton Flux ----
# YR MO DA  HHMM     Day     Day       S    > 10 MeV    S    > 30 MeV
#--------------------------------------------------------------------
2006 04 23  0000    53848       0      0    1.58e+00    0    1.10e+00
2006 04 23  0005    53848     300      0    1.58e+00    0    1.12e+00
2006 04 23  0010    53848     600      0    1.59e+00    0    1.11e+00
2006 04 23  0015    53848     900      0    1.55e+00    0    1.10e+00
2006 04 23  0020    53848    1200      0    1.55e+00    0    1.09e+00
2006 04 23  0025    53848    1500      0    1.58e+00    0    1.12e+00
2006 04 23  0030    53848    1800      0    1.52e+00    0    1.07e+00
2006 04 23  0035    53848    2100      0    1.55e+00    0    1.08e+00
2006 04 23  0040    53848    2400      0    1.56e+00    0    1.09e+00
2006 04 23  0045    53848    2700      0    1.53e+00    0    1.07e+00
2006 04 23  0050    53848    3000      0    1.56e+00    0    1.09e+00
2006 04 23  0055    53848    3300      0    1.56e+00    0    1.09e+00
2006 04 23  0100    53848    3600      0    1.59e+00    0    1.12e+00
2006 04 23  0105    53848    3900      0    1.57e+00    0    1.10e+00
2006 04 23  0110    53848    4200      0    1.55e+00    0    1.07e+00
2006 04 23  0115    53848    4500      0    1.55e+00    0    1.08e+00
2006 04 23  0120    53848    4800      0    1.57e+00    0    1.10e+00
2006 04 23  0125    53848    5100      0    1.55e+00    0    1.09e+00
2006 04 23  0130    53848    5400      0    1.58e+00    0    1.11e+00
2006 04 23  0135    53848    5700      0    1.61e+00    0    1.13e+00
2006 04 23  0140    53848    6000      0    1.57e+00    0    1.11e+00
2006 04 23  0145    53848    6300      0    1.60e+00    0    1.12e+00
2006 04 23  0150    53848    6600      0    1.56e+00    0    1.09e+00
2006 04 23  0155    53848    6900      0    1.55e+00    0    1.09e+00
2006 04 23  0200    53848    7200      0    1.55e+00    0    1.09e+00
2006 04 23  0205    53848    7500      0    1.57e+00    0    1.12e+00
2006 04 23  0210    53848    7800      0    1.59e+00    0    1.12e+00
2006 04 23  0215    53848    8100      0    1.55e+00    0    1.07e+00
2006 04 23  0220    53848    8400      0    1.57e+00    0    1.10e+00
2006 04 23  0225    53848    8700      0    1.58e+00    0    1.10e+00
2006 04 23  0230    53848    9000      0    1.55e+00    0    1.09e+00
2006 04 23  0235    53848    9300      0    1.54e+00    0    1.08e+00
2006 04 23  0240    53848    9600      0    1.56e+00    0    1.10e+00
2006 04 23  0245    53848    9900      0    1.55e+00    0    1.10e+00
2006 04 23  0250    53848   10200      0    1.57e+00    0    1.11e+00
2006 04 23  0255    53848   10500      0    1.59e+00    0    1.11e+00
2006 04 23  0300    53848   10800      0    1.53e+00    0    1.08e+00
2006 04 23  0305    53848   11100      0    1.55e+00    0    1.10e+00
2006 04 23  0310    53848   11400      0    1.55e+00    0    1.09e+00
2006 04 23  0315    53848   11700      0    1.56e+00    0    1.10e+00
2006 04 23  0320    53848   12000      0    1.57e+00    0    1.11e+00
2006 04 23  0325    53848   12300      0    1.59e+00    0    1.11e+00
2006 04 23  0330    53848   12600      0    1.55e+00    0    1.09e+00
2006 04 23  0335    53848   12900      0    1.56e+00    0    1.10e+00
2006 04 23  0340    53848   13200      0    1.54e+00    0    1.07e+00
2006 04 23  0345    53848   13500      0    1.60e+00    0    1.12e+00
2006 04 23  0350    53848   13800      0    1.55e+00    0    1.07e+00
2006 04 23  0355    53848   14100      0    1.55e+00    0    1.10e+00
2006 04 23  0400    53848   14400      0    1.54e+00    0    1.09e+00
2006 04 23  0405    53848   14700      0    1.59e+00    0    1.12e+00
2006 04 23  0410    53848   15000      0    1.58e+00    0    1.12e+00
2006 04 23  0415    53848   15300      0    1.58e+00    0    1.12e+00
2006 04 23  0420    53848   15600      0    1.55e+00    0    1.09e+00
2006 04 23  0425    53848   15900      0    1.51e+00    0    1.06e+00
2006 04 23  0430    53848   16200      0    1.57e+00    0    1.11e+00
2006 04 23  0435    53848   16500      0    1.54e+00    0    1.07e+00
2006 04 23  0440    53848   16800      0    1.58e+00    0    1.10e+00
2006 04 23  0445    53848   17100      0    1.57e+00    0    1.10e+00
2006 04 23  0450    53848   17400      0    1.58e+00    0    1.10e+00
2006 04 23  0455    53848   17700      0    1.58e+00    0    1.10e+00
2006 04 23  0500    53848   18000      0    1.54e+00    0    1.09e+00
2006 04 23  0505    53848   18300      0    1.56e+00    0    1.10e+00
2006 04 23  0510    53848   18600      0    1.58e+00    0    1.10e+00
2006 04 23  0515    53848   18900      0    1.58e+00    0    1.09e+00
2006 04 23  0520    53848   19200      0    1.55e+00    0    1.08e+00
2006 04 23  0525    53848   19500      0    1.54e+00    0    1.08e+00
2006 04 23  0530    53848   19800      0    1.58e+00    0    1.10e+00
2006 04 23  0535    53848   20100      0    1.56e+00    0    1.09e+00
2006 04 23  0540    53848   20400      0    1.59e+00    0    1.12e+00
2006 04 23  0545    53848   20700      0    1.56e+00    0    1.10e+00
2006 04 23  0550    53848   21000      0    1.55e+00    0    1.08e+00
2006 04 23  0555    53848   21300      0    1.54e+00    0    1.08e+00
2006 04 23  0600    53848   21600      0    1.57e+00    0    1.10e+00
2006 04 23  0605    53848   21900      0    1.58e+00    0    1.11e+00
2006 04 23  0610    53848   22200      0    1.56e+00    0    1.11e+00
2006 04 23  0615    53848   22500      0    1.57e+00    0    1.10e+00
2006 04 23  0620    53848   22800      0    1.56e+00    0    1.09e+00
2006 04 23  0625    53848   23100      0    1.59e+00    0    1.11e+00
2006 04 23  0630    53848   23400      0    1.54e+00    0    1.08e+00
2006 04 23  0635    53848   23700      0    1.56e+00    0    1.09e+00
2006 04 23  0640    53848   24000      0    1.58e+00    0    1.10e+00
2006 04 23  0645    53848   24300      0    1.55e+00    0    1.08e+00
2006 04 23  0650    53848   24600      0    1.57e+00    0    1.10e+00
2006 04 23  0655    53848   24900      0    1.58e+00    0    1.11e+00
2006 04 23  0700    53848   25200      0    1.55e+00    0    1.08e+00
2006 04 23  0705    53848   25500      0    1.58e+00    0    1.10e+00
2006 04 23  0710    53848   25800      0    1.59e+00    0    1.12e+00
2006 04 23  0715    53848   26100      0    1.59e+00    0    1.10e+00
2006 04 23  0720    53848   26400      0    1.51e+00    0    1.06e+00
2006 04 23  0725    53848   26700      0    1.57e+00    0    1.09e+00
2006 04 23  0730    53848   27000      0    1.54e+00    0    1.08e+00
2006 04 23  0735    53848   27300      0    1.57e+00    0    1.09e+00
2006 04 23  0740    53848   27600      0    1.56e+00    0    1.09e+00
2006 04 23  0745    53848   27900      0    1.54e+00    0    1.07e+00
2006 04 23  0750    53848   28200      0    1.61e+00    0    1.13e+00
2006 04 23  0755    53848   28500      0    1.58e+00    0    1.11e+00
2006 04 23  0800    53848   28800      0    1.59e+00    0    1.11e+00
2006 04 23  0805    53848   29100      0    1.58e+00    0    1.11e+00
2006 04 23  0810    53848   29400      0    1.56e+00    0    1.10e+00
2006 04 23  0815    53848   29700      0    1.58e+00    0    1.11e+00
2006 04 23  0820    53848   30000      0    1.55e+00    0    1.10e+00
2006 04 23  0825    53848   30300      0    1.57e+00    0    1.11e+00
2006 04 23  0830    53848   30600      0    1.58e+00    0    1.10e+00
2006 04 23  0835    53848   30900      0    1.58e+00    0    1.10e+00
2006 04 23  0840    53848   31200      0    1.57e+00    0    1.11e+00
2006 04 23  0845    53848   31500      0    1.58e+00    0    1.11e+00
2006 04 23  0850    53848   31800      0    1.58e+00    0    1.11e+00
2006 04 23  0855    53848   32100      0    1.57e+00    0    1.11e+00
2006 04 23  0900    53848   32400      0    1.62e+00    0    1.13e+00
2006 04 23  0905    53848   32700      0    1.56e+00    0    1.10e+00
2006 04 23  0910    53848   33000      0    1.58e+00    0    1.13e+00
2006 04 23  0915    53848   33300      0    1.59e+00    0    1.12e+00
2006 04 23  0920    53848   33600      0    1.60e+00    0    1.12e+00
2006 04 23  0925    53848   33900      0    1.59e+00    0    1.11e+00
2006 04 23  0930    53848   34200      0    1.59e+00    0    1.12e+00
2006 04 23  0935    53848   34500      0    1.55e+00    0    1.10e+00
2006 04 23  0940    53848   34800      0    1.59e+00    0    1.12e+00
2006 04 23  0945    53848   35100      0    1.57e+00    0    1.11e+00
2006 04 23  0950    53848   35400      0    1.55e+00    0    1.08e+00
2006 04 23  0955    53848   35700      0    1.58e+00    0    1.10e+00
2006 04 23  1000    53848   36000      0    1.58e+00    0    1.11e+00
2006 04 23  1005    53848   36300      0    1.59e+00    0    1.12e+00
2006 04 23  1010    53848   36600      0    1.61e+00    0    1.14e+00
2006 04 23  1015    53848   36900      0    1.58e+00    0    1.11e+00
2006 04 23  1020    53848   37200      0    1.60e+00    0    1.12e+00
2006 04 23  1025    53848   37500      0    1.59e+00    0    1.12e+00
2006 04 23  1030    53848   37800      0    1.58e+00    0    1.11e+00
2006 04 23  1035    53848   38100      0    1.58e+00    0    1.10e+00
2006 04 23  1040    53848   38400      0    1.58e+00    0    1.11e+00
2006 04 23  1045    53848   38700      0    1.58e+00    0    1.10e+00
2006 04 23  1050    53848   39000      0    1.60e+00    0    1.12e+00
2006 04 23  1055    53848   39300      0    1.58e+00    0    1.10e+00
2006 04 23  1100    53848   39600      0    1.61e+00    0    1.13e+00
2006 04 23  1105    53848   39900      0    1.57e+00    0    1.11e+00
2006 04 23  1110    53848   40200      0    1.61e+00    0    1.13e+00
2006 04 23  1115    53848   40500      0    1.58e+00    0    1.11e+00
2006 04 23  1120    53848   40800      0    1.58e+00    0    1.11e+00
2006 04 23  1125    53848   41100      0    1.59e+00    0    1.12e+00
2006 04 23  1130    53848   41400      0    1.60e+00    0    1.13e+00
2006 04 23  1135    53848   41700      0    1.55e+00    0    1.09e+00
2006 04 23  1140    53848   42000      0    1.57e+00    0    1.09e+00
2006 04 23  1145    53848   42300      0    1.57e+00    0    1.10e+00
2006 04 23  1150    53848   42600      0    1.57e+00    0    1.11e+00
2006 04 23  1155    53848   42900      0    1.58e+00    0    1.11e+00
2006 04 23  1200    53848   43200      0    1.58e+00    0    1.11e+00
2006 04 23  1205    53848   43500      0    1.61e+00    0    1.12e+00
2006 04 23  1210    53848   43800      0    1.58e+00    0    1.12e+00
2006 04 23  1215    53848   44100      0    1.59e+00    0    1.11e+00
2006 04 23  1220    53848   44400      0    1.60e+00    0    1.13e+00
2006 04 23  1225    53848   44700      0    1.61e+00    0    1.13e+00
2006 04 23  1230    53848   45000      0    1.62e+00    0    1.14e+00
2006 04 23  1235    53848   45300      0    1.54e+00    0    1.08e+00
2006 04 23  1240    53848   45600      0    1.58e+00    0    1.11e+00
2006 04 23  1245    53848   45900      0    1.57e+00    0    1.10e+00
2006 04 23  1250    53848   46200      0    1.55e+00    0    1.08e+00
2006 04 23  1255    53848   46500      0    1.62e+00    0    1.13e+00
2006 04 23  1300    53848   46800      0    1.58e+00    0    1.10e+00
2006 04 23  1305    53848   47100      0    1.57e+00    0    1.09e+00
2006 04 23  1310    53848   47400      0    1.56e+00    0    1.10e+00
2006 04 23  1315    53848   47700      0    1.58e+00    0    1.11e+00
2006 04 23  1320    53848   48000      0    1.58e+00    0    1.12e+00
2006 04 23  1325    53848   48300      0    1.58e+00    0    1.12e+00
2006 04 23  1330    53848   48600      0    1.62e+00    0    1.14e+00
2006 04 23  1335    53848   48900      0    1.59e+00    0    1.13e+00
2006 04 23  1340    53848   49200      0    1.59e+00    0    1.10e+00
2006 04 23  1345    53848   49500      0    1.55e+00    0    1.09e+00
2006 04 23  1350    53848   49800      0    1.58e+00    0    1.11e+00
2006 04 23  1355    53848   50100      0    1.60e+00    0    1.13e+00
2006 04 23  1400    53848   50400      0    1.56e+00    0    1.10e+00
2006 04 23  1405    53848   50700      0    1.58e+00    0    1.12e+00
2006 04 23  1410    53848   51000      0    1.58e+00    0    1.10e+00
2006 04 23  1415    53848   51300      0    1.59e+00    0    1.11e+00
2006 04 23  1420    53848   51600      0    1.59e+00    0    1.11e+00
2006 04 23  1425    53848   51900      0    1.61e+00    0    1.13e+00
2006 04 23  1430    53848   52200      0    1.57e+00    0    1.11e+00
2006 04 23  1435    53848   52500      0    1.59e+00    0    1.11e+00
2006 04 23  1440    53848   52800      0    1.58e+00    0    1.11e+00
2006 04 23  1445    53848   53100      0    1.58e+00    0    1.12e+00
2006 04 23  1450    53848   53400      0    1.55e+00    0    1.09e+00
2006 04 23  1455    53848   53700      0    1.57e+00    0    1.10e+00
2006 04 23  1500    53848   54000      0    1.58e+00    0    1.11e+00
2006 04 23  1505    53848   54300      0    1.52e+00    0    1.05e+00
2006 04 23  1510    53848   54600      0    1.59e+00    0    1.11e+00
2006 04 23  1515    53848   54900      0    1.58e+00    0    1.11e+00
2006 04 23  1520    53848   55200      0    1.58e+00    0    1.10e+00
2006 04 23  1525    53848   55500      0    1.58e+00    0    1.13e+00
2006 04 23  1530    53848   55800      0    1.58e+00    0    1.12e+00
2006 04 23  1535    53848   56100      0    1.56e+00    0    1.09e+00
2006 04 23  1540    53848   56400      0    1.58e+00    0    1.12e+00
2006 04 23  1545    53848   56700      0    1.55e+00    0    1.09e+00
2006 04 23  1550    53848   57000      0    1.59e+00    0    1.11e+00
2006 04 23  1555    53848   57300      0    1.57e+00    0    1.10e+00
2006 04 23  1600    53848   57600      0    1.59e+00    0    1.11e+00
2006 04 23  1605    53848   57900      0    1.56e+00    0    1.10e+00
2006 04 23  1610    53848   58200      0    1.59e+00    0    1.13e+00
2006 04 23  1615    53848   58500      0    1.58e+00    0    1.11e+00
2006 04 23  1620    53848   58800      0    1.56e+00    0    1.10e+00
2006 04 23  1625    53848   59100      0    1.60e+00    0    1.13e+00
2006 04 23  1630    53848   59400      0    1.58e+00    0    1.10e+00
2006 04 23  1635    53848   59700      0    1.59e+00    0    1.11e+00
2006 04 23  1640    53848   60000      0    1.62e+00    0    1.12e+00
2006 04 23  1645    53848   60300      0    1.60e+00    0    1.12e+00
2006 04 23  1650    53848   60600      0    1.60e+00    0    1.11e+00
2006 04 23  1655    53848   60900      0    1.56e+00    0    1.10e+00
2006 04 23  1700    53848   61200      0    1.58e+00    0    1.10e+00
2006 04 23  1705    53848   61500      0    1.57e+00    0    1.11e+00
2006 04 23  1710    53848   61800      0    1.60e+00    0    1.12e+00
2006 04 23  1715    53848   62100      0    1.60e+00    0    1.12e+00
2006 04 23  1720    53848   62400      0    1.61e+00    0    1.13e+00
2006 04 23  1725    53848   62700      0    1.57e+00    0    1.10e+00
2006 04 23  1730    53848   63000      0    1.56e+00    0    1.09e+00
2006 04 23  1735    53848   63300      0    1.58e+00    0    1.09e+00
2006 04 23  1740    53848   63600      0    1.58e+00    0    1.11e+00
2006 04 23  1745    53848   63900      0    1.59e+00    0    1.11e+00
2006 04 23  1750    53848   64200      0    1.54e+00    0    1.08e+00
2006 04 23  1755    53848   64500      0    1.57e+00    0    1.10e+00
2006 04 23  1800    53848   64800      0    1.56e+00    0    1.08e+00
2006 04 23  1805    53848   65100      0    1.57e+00    0    1.09e+00
2006 04 23  1810    53848   65400      0    1.59e+00    0    1.12e+00
2006 04 23  1815    53848   65700      0    1.58e+00    0    1.11e+00
2006 04 23  1820    53848   66000      0    1.57e+00    0    1.09e+00
2006 04 23  1825    53848   66300      0    1.62e+00    0    1.14e+00
2006 04 23  1830    53848   66600      0    1.61e+00    0    1.12e+00
2006 04 23  1835    53848   66900      0    1.59e+00    0    1.11e+00
2006 04 23  1840    53848   67200      0    1.54e+00    0    1.08e+00
2006 04 23  1845    53848   67500      0    1.58e+00    0    1.11e+00
2006 04 23  1850    53848   67800      0    1.58e+00    0    1.10e+00
2006 04 23  1855    53848   68100      0    1.56e+00    0    1.09e+00
2006 04 23  1900    53848   68400      0    1.58e+00    0    1.10e+00
2006 04 23  1905    53848   68700      0    1.57e+00    0    1.11e+00
2006 04 23  1910    53848   69000      0    1.59e+00    0    1.11e+00
2006 04 23  1915    53848   69300      0    1.58e+00    0    1.10e+00
2006 04 23  1920    53848   69600      0    1.57e+00    0    1.10e+00
2006 04 23  1925    53848   69900      0    1.58e+00    0    1.11e+00
2006 04 23  1930    53848   70200      0    1.57e+00    0    1.10e+00
2006 04 23  1935    53848   70500      0    1.59e+00    0    1.12e+00
2006 04 23  1940    53848   70800      0    1.60e+00    0    1.13e+00
2006 04 23  1945    53848   71100      0    1.59e+00    0    1.10e+00
2006 04 23  1950    53848   71400      0    1.60e+00    0    1.12e+00
2006 04 23  1955    53848   71700      0    1.57e+00    0    1.10e+00
2006 04 23  2000    53848   72000      0    1.58e+00    0    1.11e+00
2006 04 23  2005    53848   72300      0    1.57e+00    0    1.11e+00
2006 04 23  2010    53848   72600      0    1.56e+00    0    1.10e+00
2006 04 23  2015    53848   72900      0    1.57e+00    0    1.10e+00
2006 04 23  2020    53848   73200      0    1.56e+00    0    1.10e+00
2006 04 23  2025    53848   73500      0    1.60e+00    0    1.10e+00
2006 04 23  2030    53848   73800      0    1.59e+00    0    1.12e+00
2006 04 23  2035    53848   74100      0    1.56e+00    0    1.10e+00
2006 04 23  2040    53848   74400      0    1.59e+00    0    1.11e+00
2006 04 23  2045    53848   74700      0    1.55e+00    0    1.08e+00
2006 04 23  2050    53848   75000      0    1.59e+00    0    1.11e+00
2006 04 23  2055    53848   75300      0    1.60e+00    0    1.11e+00
2006 04 23  2100    53848   75600      0    1.58e+00    0    1.11e+00
2006 04 23  2105    53848   75900      0    1.56e+00    0    1.10e+00
2006 04 23  2110    53848   76200      0    1.60e+00    0    1.12e+00
2006 04 23  2115    53848   76500      0    1.56e+00    0    1.09e+00
2006 04 23  2120    53848   76800      0    1.60e+00    0    1.13e+00
2006 04 23  2125    53848   77100      0    1.56e+00    0    1.09e+00
2006 04 23  2130    53848   77400      0    1.55e+00    0    1.08e+00
2006 04 23  2135    53848   77700      0    1.59e+00    0    1.12e+00
2006 04 23  2140    53848   78000      0    1.54e+00    0    1.08e+00
2006 04 23  2145    53848   78300      0    1.58e+00    0    1.09e+00
2006 04 23  2150    53848   78600      0    1.55e+00    0    1.08e+00
2006 04 23  2155    53848   78900      0    1.60e+00    0    1.12e+00
2006 04 23  2200    53848   79200      0    1.58e+00    0    1.10e+00
2006 04 23  2205    53848   79500      0    1.57e+00    0    1.10e+00
2006 04 23  2210    53848   79800      0    1.58e+00    0    1.12e+00
2006 04 23  2215    53848   80100      0    1.54e+00    0    1.06e+00
2006 04 23  2220    53848   80400      0    1.56e+00    0    1.09e+00
2006 04 23  2225    53848   80700      0    1.54e+00    0    1.09e+00
2006 04 23  2230    53848   81000      0    1.57e+00    0    1.10e+00
2006 04 23  2235    53848   81300      0    1.58e+00    0    1.11e+00
2006 04 23  2240    53848   81600      0    1.55e+00    0    1.09e+00
2006 04 23  2245    53848   81900      0    1.56e+00    0    1.10e+00
2006 04 23  2250    53848   82200      0    1.61e+00    0    1.14e+00
2006 04 23  2255    53848   82500      0    1.57e+00    0    1.10e+00
2006 04 23  2300    53848   82800      0    1.58e+00    0    1.11e+00
2006 04 23  2305    53848   83100      0    1.56e+00    0    1.10e+00
2006 04 23  2310    53848   83400      0    1.61e+00    0    1.13e+00
2006 04 23  2315    53848   83700      0    1.58e+00    0    1.11e+00
2006 04 23  2320    53848   84000      0    1.57e+00    0    1.11e+00
2006 04 23  2325    53848   84300      0    1.61e+00    0    1.13e+00
2006 04 23  2330    53848   84600      0    1.58e+00    0    1.11e+00
2006 04 23  2335    53848   84900      0    1.57e+00    0    1.11e+00
2006 04 23  2340    53848   85200      0    1.59e+00    0    1.12e+00
2006 04 23  2345    53848   85500      0    1.56e+00    0    1.09e+00
2006 04 23  2350    53848   85800      0    1.57e+00    0    1.10e+00
2006 04 23  2355    53848   86100      0    1.57e+00    0    1.10e+00
