:Data_list: 20061118_ace_sis_5m.txt
:Created: 2006 Nov 19 0011 UT
# Prepared by the U.S. Dept. of Commerce, NOAA, Space Environment Center.
# Please send comments and suggestions to SEC.Webmaster@noaa.gov 
# 
# Units: proton flux p/cs2-sec-ster
# Status(S): 0 = nominal data, 1 to 8 = bad data record, 9 = no data
# Missing data values: -1.00e+05
# Source: ACE Satellite - Solar Isotope Spectrometer
#
# 5-minute averaged Real-time Integral Flux of High-energy Solar Protons
# 
#                 Modified Seconds
# UT Date   Time   Julian  of the      ---- Integral Proton Flux ----
# YR MO DA  HHMM     Day     Day       S    > 10 MeV    S    > 30 MeV
#--------------------------------------------------------------------
2006 11 18  0000    54057       0      0    1.68e+00    0    1.17e+00
2006 11 18  0005    54057     300      0    1.73e+00    0    1.22e+00
2006 11 18  0010    54057     600      0    1.68e+00    0    1.18e+00
2006 11 18  0015    54057     900      0    1.70e+00    0    1.20e+00
2006 11 18  0020    54057    1200      0    1.74e+00    0    1.21e+00
2006 11 18  0025    54057    1500      0    1.70e+00    0    1.20e+00
2006 11 18  0030    54057    1800      0    1.72e+00    0    1.21e+00
2006 11 18  0035    54057    2100      0    1.75e+00    0    1.23e+00
2006 11 18  0040    54057    2400      0    1.74e+00    0    1.22e+00
2006 11 18  0045    54057    2700      0    1.71e+00    0    1.19e+00
2006 11 18  0050    54057    3000      0    1.71e+00    0    1.19e+00
2006 11 18  0055    54057    3300      0    1.70e+00    0    1.19e+00
2006 11 18  0100    54057    3600      0    1.70e+00    0    1.19e+00
2006 11 18  0105    54057    3900      0    1.67e+00    0    1.16e+00
2006 11 18  0110    54057    4200      0    1.72e+00    0    1.20e+00
2006 11 18  0115    54057    4500      0    1.70e+00    0    1.20e+00
2006 11 18  0120    54057    4800      0    1.69e+00    0    1.19e+00
2006 11 18  0125    54057    5100      0    1.68e+00    0    1.16e+00
2006 11 18  0130    54057    5400      0    1.67e+00    0    1.17e+00
2006 11 18  0135    54057    5700      0    1.75e+00    0    1.24e+00
2006 11 18  0140    54057    6000      0    1.75e+00    0    1.23e+00
2006 11 18  0145    54057    6300      0    1.72e+00    0    1.22e+00
2006 11 18  0150    54057    6600      0    1.76e+00    0    1.23e+00
2006 11 18  0155    54057    6900      0    1.71e+00    0    1.20e+00
2006 11 18  0200    54057    7200      0    1.74e+00    0    1.23e+00
2006 11 18  0205    54057    7500      0    1.75e+00    0    1.21e+00
2006 11 18  0210    54057    7800      0    1.69e+00    0    1.16e+00
2006 11 18  0215    54057    8100      0    1.70e+00    0    1.17e+00
2006 11 18  0220    54057    8400      0    1.69e+00    0    1.20e+00
2006 11 18  0225    54057    8700      9   -1.00e+05    9   -1.00e+05
2006 11 18  0230    54057    9000      0    1.67e+00    0    1.18e+00
2006 11 18  0235    54057    9300      0    1.72e+00    0    1.20e+00
2006 11 18  0240    54057    9600      0    1.71e+00    0    1.19e+00
2006 11 18  0245    54057    9900      0    1.71e+00    0    1.19e+00
2006 11 18  0250    54057   10200      0    1.68e+00    0    1.16e+00
2006 11 18  0255    54057   10500      0    1.70e+00    0    1.19e+00
2006 11 18  0300    54057   10800      0    1.70e+00    0    1.21e+00
2006 11 18  0305    54057   11100      0    1.73e+00    0    1.22e+00
2006 11 18  0310    54057   11400      0    1.68e+00    0    1.18e+00
2006 11 18  0315    54057   11700      0    1.72e+00    0    1.20e+00
2006 11 18  0320    54057   12000      0    1.74e+00    0    1.23e+00
2006 11 18  0325    54057   12300      0    1.72e+00    0    1.21e+00
2006 11 18  0330    54057   12600      0    1.68e+00    0    1.17e+00
2006 11 18  0335    54057   12900      0    1.72e+00    0    1.21e+00
2006 11 18  0340    54057   13200      0    1.73e+00    0    1.20e+00
2006 11 18  0345    54057   13500      0    1.70e+00    0    1.21e+00
2006 11 18  0350    54057   13800      0    1.76e+00    0    1.23e+00
2006 11 18  0355    54057   14100      0    1.70e+00    0    1.20e+00
2006 11 18  0400    54057   14400      0    1.67e+00    0    1.18e+00
2006 11 18  0405    54057   14700      0    1.75e+00    0    1.22e+00
2006 11 18  0410    54057   15000      0    1.73e+00    0    1.22e+00
2006 11 18  0415    54057   15300      0    1.73e+00    0    1.23e+00
2006 11 18  0420    54057   15600      0    1.70e+00    0    1.19e+00
2006 11 18  0425    54057   15900      0    1.71e+00    0    1.19e+00
2006 11 18  0430    54057   16200      0    1.72e+00    0    1.22e+00
2006 11 18  0435    54057   16500      0    1.76e+00    0    1.24e+00
2006 11 18  0440    54057   16800      0    1.73e+00    0    1.22e+00
2006 11 18  0445    54057   17100      0    1.72e+00    0    1.20e+00
2006 11 18  0450    54057   17400      0    1.72e+00    0    1.21e+00
2006 11 18  0455    54057   17700      0    1.72e+00    0    1.21e+00
2006 11 18  0500    54057   18000      0    1.74e+00    0    1.23e+00
2006 11 18  0505    54057   18300      0    1.73e+00    0    1.22e+00
2006 11 18  0510    54057   18600      0    1.71e+00    0    1.20e+00
2006 11 18  0515    54057   18900      0    1.72e+00    0    1.20e+00
2006 11 18  0520    54057   19200      0    1.71e+00    0    1.20e+00
2006 11 18  0525    54057   19500      0    1.70e+00    0    1.20e+00
2006 11 18  0530    54057   19800      0    1.70e+00    0    1.18e+00
2006 11 18  0535    54057   20100      0    1.72e+00    0    1.21e+00
2006 11 18  0540    54057   20400      0    1.67e+00    0    1.16e+00
2006 11 18  0545    54057   20700      0    1.67e+00    0    1.17e+00
2006 11 18  0550    54057   21000      0    1.72e+00    0    1.20e+00
2006 11 18  0555    54057   21300      0    1.69e+00    0    1.20e+00
2006 11 18  0600    54057   21600      0    1.68e+00    0    1.17e+00
2006 11 18  0605    54057   21900      0    1.65e+00    0    1.16e+00
2006 11 18  0610    54057   22200      0    1.71e+00    0    1.20e+00
2006 11 18  0615    54057   22500      0    1.68e+00    0    1.17e+00
2006 11 18  0620    54057   22800      0    1.72e+00    0    1.22e+00
2006 11 18  0625    54057   23100      0    1.70e+00    0    1.19e+00
2006 11 18  0630    54057   23400      0    1.69e+00    0    1.18e+00
2006 11 18  0635    54057   23700      0    1.71e+00    0    1.21e+00
2006 11 18  0640    54057   24000      0    1.71e+00    0    1.20e+00
2006 11 18  0645    54057   24300      0    1.69e+00    0    1.18e+00
2006 11 18  0650    54057   24600      0    1.74e+00    0    1.21e+00
2006 11 18  0655    54057   24900      0    1.72e+00    0    1.20e+00
2006 11 18  0700    54057   25200      0    1.67e+00    0    1.17e+00
2006 11 18  0705    54057   25500      9   -1.00e+05    9   -1.00e+05
2006 11 18  0710    54057   25800      0    1.73e+00    0    1.21e+00
2006 11 18  0715    54057   26100      0    1.73e+00    0    1.22e+00
2006 11 18  0720    54057   26400      0    1.71e+00    0    1.20e+00
2006 11 18  0725    54057   26700      0    1.71e+00    0    1.20e+00
2006 11 18  0730    54057   27000      0    1.72e+00    0    1.21e+00
2006 11 18  0735    54057   27300      0    1.71e+00    0    1.19e+00
2006 11 18  0740    54057   27600      0    1.73e+00    0    1.21e+00
2006 11 18  0745    54057   27900      0    1.70e+00    0    1.19e+00
2006 11 18  0750    54057   28200      0    1.73e+00    0    1.22e+00
2006 11 18  0755    54057   28500      0    1.72e+00    0    1.21e+00
2006 11 18  0800    54057   28800      0    1.73e+00    0    1.21e+00
2006 11 18  0805    54057   29100      0    1.70e+00    0    1.19e+00
2006 11 18  0810    54057   29400      0    1.79e+00    0    1.25e+00
2006 11 18  0815    54057   29700      0    1.77e+00    0    1.24e+00
2006 11 18  0820    54057   30000      0    1.78e+00    0    1.26e+00
2006 11 18  0825    54057   30300      0    1.75e+00    0    1.22e+00
2006 11 18  0830    54057   30600      0    1.73e+00    0    1.20e+00
2006 11 18  0835    54057   30900      0    1.71e+00    0    1.21e+00
2006 11 18  0840    54057   31200      0    1.73e+00    0    1.21e+00
2006 11 18  0845    54057   31500      0    1.70e+00    0    1.18e+00
2006 11 18  0850    54057   31800      0    1.72e+00    0    1.20e+00
2006 11 18  0855    54057   32100      0    1.74e+00    0    1.22e+00
2006 11 18  0900    54057   32400      0    1.75e+00    0    1.24e+00
2006 11 18  0905    54057   32700      0    1.74e+00    0    1.21e+00
2006 11 18  0910    54057   33000      0    1.73e+00    0    1.21e+00
2006 11 18  0915    54057   33300      0    1.76e+00    0    1.23e+00
2006 11 18  0920    54057   33600      0    1.75e+00    0    1.23e+00
2006 11 18  0925    54057   33900      0    1.72e+00    0    1.20e+00
2006 11 18  0930    54057   34200      0    1.72e+00    0    1.20e+00
2006 11 18  0935    54057   34500      0    1.74e+00    0    1.22e+00
2006 11 18  0940    54057   34800      0    1.74e+00    0    1.22e+00
2006 11 18  0945    54057   35100      0    1.77e+00    0    1.25e+00
2006 11 18  0950    54057   35400      0    1.74e+00    0    1.21e+00
2006 11 18  0955    54057   35700      0    1.74e+00    0    1.22e+00
2006 11 18  1000    54057   36000      0    1.78e+00    0    1.25e+00
2006 11 18  1005    54057   36300      0    1.76e+00    0    1.22e+00
2006 11 18  1010    54057   36600      0    1.78e+00    0    1.24e+00
2006 11 18  1015    54057   36900      0    1.76e+00    0    1.22e+00
2006 11 18  1020    54057   37200      0    1.79e+00    0    1.27e+00
2006 11 18  1025    54057   37500      0    1.77e+00    0    1.24e+00
2006 11 18  1030    54057   37800      0    1.76e+00    0    1.22e+00
2006 11 18  1035    54057   38100      0    1.74e+00    0    1.22e+00
2006 11 18  1040    54057   38400      0    1.74e+00    0    1.21e+00
2006 11 18  1045    54057   38700      0    1.77e+00    0    1.24e+00
2006 11 18  1050    54057   39000      0    1.77e+00    0    1.23e+00
2006 11 18  1055    54057   39300      0    1.76e+00    0    1.23e+00
2006 11 18  1100    54057   39600      0    1.77e+00    0    1.26e+00
2006 11 18  1105    54057   39900      0    1.76e+00    0    1.23e+00
2006 11 18  1110    54057   40200      0    1.75e+00    0    1.22e+00
2006 11 18  1115    54057   40500      0    1.75e+00    0    1.23e+00
2006 11 18  1120    54057   40800      0    1.71e+00    0    1.19e+00
2006 11 18  1125    54057   41100      0    1.74e+00    0    1.23e+00
2006 11 18  1130    54057   41400      0    1.77e+00    0    1.24e+00
2006 11 18  1135    54057   41700      0    1.75e+00    0    1.23e+00
2006 11 18  1140    54057   42000      0    1.70e+00    0    1.18e+00
2006 11 18  1145    54057   42300      0    1.73e+00    0    1.20e+00
2006 11 18  1150    54057   42600      0    1.74e+00    0    1.21e+00
2006 11 18  1155    54057   42900      0    1.77e+00    0    1.23e+00
2006 11 18  1200    54057   43200      0    1.79e+00    0    1.26e+00
2006 11 18  1205    54057   43500      0    1.76e+00    0    1.23e+00
2006 11 18  1210    54057   43800      0    1.76e+00    0    1.23e+00
2006 11 18  1215    54057   44100      0    1.73e+00    0    1.21e+00
2006 11 18  1220    54057   44400      0    1.76e+00    0    1.23e+00
2006 11 18  1225    54057   44700      0    1.76e+00    0    1.24e+00
2006 11 18  1230    54057   45000      0    1.76e+00    0    1.23e+00
2006 11 18  1235    54057   45300      0    1.77e+00    0    1.24e+00
2006 11 18  1240    54057   45600      0    1.78e+00    0    1.24e+00
2006 11 18  1245    54057   45900      0    1.76e+00    0    1.23e+00
2006 11 18  1250    54057   46200      0    1.76e+00    0    1.23e+00
2006 11 18  1255    54057   46500      0    1.79e+00    0    1.25e+00
2006 11 18  1300    54057   46800      0    1.76e+00    0    1.23e+00
2006 11 18  1305    54057   47100      0    1.77e+00    0    1.23e+00
2006 11 18  1310    54057   47400      0    1.78e+00    0    1.25e+00
2006 11 18  1315    54057   47700      0    1.77e+00    0    1.25e+00
2006 11 18  1320    54057   48000      0    1.74e+00    0    1.22e+00
2006 11 18  1325    54057   48300      0    1.72e+00    0    1.20e+00
2006 11 18  1330    54057   48600      0    1.73e+00    0    1.22e+00
2006 11 18  1335    54057   48900      0    1.76e+00    0    1.23e+00
2006 11 18  1340    54057   49200      0    1.76e+00    0    1.22e+00
2006 11 18  1345    54057   49500      0    1.77e+00    0    1.25e+00
2006 11 18  1350    54057   49800      0    1.77e+00    0    1.24e+00
2006 11 18  1355    54057   50100      0    1.76e+00    0    1.24e+00
2006 11 18  1400    54057   50400      0    1.74e+00    0    1.21e+00
2006 11 18  1405    54057   50700      0    1.73e+00    0    1.22e+00
2006 11 18  1410    54057   51000      0    1.75e+00    0    1.23e+00
2006 11 18  1415    54057   51300      0    1.75e+00    0    1.23e+00
2006 11 18  1420    54057   51600      0    1.78e+00    0    1.25e+00
2006 11 18  1425    54057   51900      0    1.77e+00    0    1.24e+00
2006 11 18  1430    54057   52200      0    1.76e+00    0    1.22e+00
2006 11 18  1435    54057   52500      0    1.79e+00    0    1.23e+00
2006 11 18  1440    54057   52800      0    1.72e+00    0    1.19e+00
2006 11 18  1445    54057   53100      0    1.77e+00    0    1.24e+00
2006 11 18  1450    54057   53400      0    1.82e+00    0    1.27e+00
2006 11 18  1455    54057   53700      0    1.76e+00    0    1.23e+00
2006 11 18  1500    54057   54000      0    1.83e+00    0    1.28e+00
2006 11 18  1505    54057   54300      0    1.79e+00    0    1.26e+00
2006 11 18  1510    54057   54600      0    1.78e+00    0    1.25e+00
2006 11 18  1515    54057   54900      0    1.75e+00    0    1.23e+00
2006 11 18  1520    54057   55200      0    1.77e+00    0    1.24e+00
2006 11 18  1525    54057   55500      0    1.76e+00    0    1.23e+00
2006 11 18  1530    54057   55800      0    1.75e+00    0    1.22e+00
2006 11 18  1535    54057   56100      0    1.79e+00    0    1.27e+00
2006 11 18  1540    54057   56400      0    1.80e+00    0    1.26e+00
2006 11 18  1545    54057   56700      0    1.80e+00    0    1.26e+00
2006 11 18  1550    54057   57000      0    1.77e+00    0    1.23e+00
2006 11 18  1555    54057   57300      0    1.76e+00    0    1.23e+00
2006 11 18  1600    54057   57600      0    1.78e+00    0    1.24e+00
2006 11 18  1605    54057   57900      0    1.76e+00    0    1.22e+00
2006 11 18  1610    54057   58200      0    1.81e+00    0    1.26e+00
2006 11 18  1615    54057   58500      0    1.79e+00    0    1.26e+00
2006 11 18  1620    54057   58800      0    1.76e+00    0    1.22e+00
2006 11 18  1625    54057   59100      0    1.79e+00    0    1.26e+00
2006 11 18  1630    54057   59400      0    1.83e+00    0    1.29e+00
2006 11 18  1635    54057   59700      0    1.80e+00    0    1.25e+00
2006 11 18  1640    54057   60000      0    1.71e+00    0    1.20e+00
2006 11 18  1645    54057   60300      0    1.79e+00    0    1.26e+00
2006 11 18  1650    54057   60600      0    1.79e+00    0    1.26e+00
2006 11 18  1655    54057   60900      0    1.79e+00    0    1.25e+00
2006 11 18  1700    54057   61200      0    1.81e+00    0    1.25e+00
2006 11 18  1705    54057   61500      0    1.81e+00    0    1.26e+00
2006 11 18  1710    54057   61800      0    1.77e+00    0    1.24e+00
2006 11 18  1715    54057   62100      0    1.84e+00    0    1.28e+00
2006 11 18  1720    54057   62400      0    1.81e+00    0    1.26e+00
2006 11 18  1725    54057   62700      0    1.78e+00    0    1.24e+00
2006 11 18  1730    54057   63000      0    1.78e+00    0    1.25e+00
2006 11 18  1735    54057   63300      0    1.80e+00    0    1.26e+00
2006 11 18  1740    54057   63600      0    1.74e+00    0    1.22e+00
2006 11 18  1745    54057   63900      0    1.74e+00    0    1.21e+00
2006 11 18  1750    54057   64200      0    1.73e+00    0    1.21e+00
2006 11 18  1755    54057   64500      0    1.75e+00    0    1.22e+00
2006 11 18  1800    54057   64800      0    1.73e+00    0    1.21e+00
2006 11 18  1805    54057   65100      0    1.76e+00    0    1.24e+00
2006 11 18  1810    54057   65400      0    1.73e+00    0    1.21e+00
2006 11 18  1815    54057   65700      0    1.77e+00    0    1.23e+00
2006 11 18  1820    54057   66000      0    1.75e+00    0    1.22e+00
2006 11 18  1825    54057   66300      0    1.77e+00    0    1.23e+00
2006 11 18  1830    54057   66600      0    1.75e+00    0    1.23e+00
2006 11 18  1835    54057   66900      0    1.75e+00    0    1.23e+00
2006 11 18  1840    54057   67200      0    1.73e+00    0    1.21e+00
2006 11 18  1845    54057   67500      0    1.70e+00    0    1.19e+00
2006 11 18  1850    54057   67800      0    1.75e+00    0    1.23e+00
2006 11 18  1855    54057   68100      0    1.77e+00    0    1.23e+00
2006 11 18  1900    54057   68400      0    1.75e+00    0    1.23e+00
2006 11 18  1905    54057   68700      0    1.71e+00    0    1.19e+00
2006 11 18  1910    54057   69000      0    1.77e+00    0    1.24e+00
2006 11 18  1915    54057   69300      0    1.72e+00    0    1.20e+00
2006 11 18  1920    54057   69600      0    1.64e+00    0    1.15e+00
2006 11 18  1925    54057   69900      0    1.70e+00    0    1.18e+00
2006 11 18  1930    54057   70200      0    1.76e+00    0    1.25e+00
2006 11 18  1935    54057   70500      0    1.82e+00    0    1.28e+00
2006 11 18  1940    54057   70800      0    1.77e+00    0    1.23e+00
2006 11 18  1945    54057   71100      0    1.76e+00    0    1.23e+00
2006 11 18  1950    54057   71400      0    1.68e+00    0    1.17e+00
2006 11 18  1955    54057   71700      0    1.71e+00    0    1.19e+00
2006 11 18  2000    54057   72000      0    1.74e+00    0    1.22e+00
2006 11 18  2005    54057   72300      0    1.71e+00    0    1.19e+00
2006 11 18  2010    54057   72600      0    1.72e+00    0    1.20e+00
2006 11 18  2015    54057   72900      0    1.71e+00    0    1.21e+00
2006 11 18  2020    54057   73200      0    1.70e+00    0    1.18e+00
2006 11 18  2025    54057   73500      0    1.73e+00    0    1.21e+00
2006 11 18  2030    54057   73800      0    1.73e+00    0    1.21e+00
2006 11 18  2035    54057   74100      0    1.73e+00    0    1.22e+00
2006 11 18  2040    54057   74400      0    1.71e+00    0    1.19e+00
2006 11 18  2045    54057   74700      0    1.70e+00    0    1.18e+00
2006 11 18  2050    54057   75000      0    1.68e+00    0    1.18e+00
2006 11 18  2055    54057   75300      0    1.68e+00    0    1.18e+00
2006 11 18  2100    54057   75600      9   -1.00e+05    9   -1.00e+05
2006 11 18  2105    54057   75900      9   -1.00e+05    9   -1.00e+05
2006 11 18  2110    54057   76200      9   -1.00e+05    9   -1.00e+05
2006 11 18  2115    54057   76500      9   -1.00e+05    9   -1.00e+05
2006 11 18  2120    54057   76800      9   -1.00e+05    9   -1.00e+05
2006 11 18  2125    54057   77100      9   -1.00e+05    9   -1.00e+05
2006 11 18  2130    54057   77400      9   -1.00e+05    9   -1.00e+05
2006 11 18  2135    54057   77700      9   -1.00e+05    9   -1.00e+05
2006 11 18  2140    54057   78000      0    1.64e+00    0    1.15e+00
2006 11 18  2145    54057   78300      0    1.74e+00    0    1.22e+00
2006 11 18  2150    54057   78600      0    1.72e+00    0    1.20e+00
2006 11 18  2155    54057   78900      0    1.76e+00    0    1.24e+00
2006 11 18  2200    54057   79200      0    1.70e+00    0    1.18e+00
2006 11 18  2205    54057   79500      0    1.75e+00    0    1.22e+00
2006 11 18  2210    54057   79800      0    1.74e+00    0    1.23e+00
2006 11 18  2215    54057   80100      0    1.71e+00    0    1.21e+00
2006 11 18  2220    54057   80400      0    1.72e+00    0    1.20e+00
2006 11 18  2225    54057   80700      0    1.74e+00    0    1.22e+00
2006 11 18  2230    54057   81000      0    1.74e+00    0    1.21e+00
2006 11 18  2235    54057   81300      0    1.71e+00    0    1.20e+00
2006 11 18  2240    54057   81600      0    1.75e+00    0    1.22e+00
2006 11 18  2245    54057   81900      0    1.74e+00    0    1.23e+00
2006 11 18  2250    54057   82200      0    1.73e+00    0    1.21e+00
2006 11 18  2255    54057   82500      0    1.74e+00    0    1.21e+00
2006 11 18  2300    54057   82800      0    1.75e+00    0    1.23e+00
2006 11 18  2305    54057   83100      0    1.74e+00    0    1.21e+00
2006 11 18  2310    54057   83400      0    1.73e+00    0    1.22e+00
2006 11 18  2315    54057   83700      0    1.75e+00    0    1.23e+00
2006 11 18  2320    54057   84000      0    1.62e+00    0    1.13e+00
2006 11 18  2325    54057   84300      0    1.74e+00    0    1.22e+00
2006 11 18  2330    54057   84600      0    1.73e+00    0    1.22e+00
2006 11 18  2335    54057   84900      0    1.75e+00    0    1.23e+00
2006 11 18  2340    54057   85200      0    1.72e+00    0    1.21e+00
2006 11 18  2345    54057   85500      0    1.73e+00    0    1.20e+00
2006 11 18  2350    54057   85800      0    1.75e+00    0    1.21e+00
2006 11 18  2355    54057   86100      0    1.75e+00    0    1.23e+00
