:Data_list: 20060531_ace_sis_5m.txt
:Created: 2006 Jun 01 0011 UT
# Prepared by the U.S. Dept. of Commerce, NOAA, Space Environment Center.
# Please send comments and suggestions to SEC.Webmaster@noaa.gov 
# 
# Units: proton flux p/cs2-sec-ster
# Status(S): 0 = nominal data, 1 to 8 = bad data record, 9 = no data
# Missing data values: -1.00e+05
# Source: ACE Satellite - Solar Isotope Spectrometer
#
# 5-minute averaged Real-time Integral Flux of High-energy Solar Protons
# 
#                 Modified Seconds
# UT Date   Time   Julian  of the      ---- Integral Proton Flux ----
# YR MO DA  HHMM     Day     Day       S    > 10 MeV    S    > 30 MeV
#--------------------------------------------------------------------
2006 05 31  0000    53886       0      0    1.66e+00    0    1.17e+00
2006 05 31  0005    53886     300      0    1.64e+00    0    1.16e+00
2006 05 31  0010    53886     600      0    1.65e+00    0    1.15e+00
2006 05 31  0015    53886     900      0    1.65e+00    0    1.16e+00
2006 05 31  0020    53886    1200      0    1.61e+00    0    1.14e+00
2006 05 31  0025    53886    1500      0    1.69e+00    0    1.18e+00
2006 05 31  0030    53886    1800      0    1.63e+00    0    1.14e+00
2006 05 31  0035    53886    2100      0    1.67e+00    0    1.17e+00
2006 05 31  0040    53886    2400      0    1.66e+00    0    1.17e+00
2006 05 31  0045    53886    2700      0    1.63e+00    0    1.14e+00
2006 05 31  0050    53886    3000      0    1.65e+00    0    1.15e+00
2006 05 31  0055    53886    3300      0    1.60e+00    0    1.13e+00
2006 05 31  0100    53886    3600      0    1.63e+00    0    1.16e+00
2006 05 31  0105    53886    3900      0    1.64e+00    0    1.15e+00
2006 05 31  0110    53886    4200      0    1.61e+00    0    1.13e+00
2006 05 31  0115    53886    4500      0    1.62e+00    0    1.13e+00
2006 05 31  0120    53886    4800      0    1.61e+00    0    1.12e+00
2006 05 31  0125    53886    5100      0    1.60e+00    0    1.12e+00
2006 05 31  0130    53886    5400      0    1.62e+00    0    1.14e+00
2006 05 31  0135    53886    5700      0    1.66e+00    0    1.15e+00
2006 05 31  0140    53886    6000      0    1.62e+00    0    1.13e+00
2006 05 31  0145    53886    6300      0    1.64e+00    0    1.15e+00
2006 05 31  0150    53886    6600      0    1.63e+00    0    1.15e+00
2006 05 31  0155    53886    6900      0    1.62e+00    0    1.14e+00
2006 05 31  0200    53886    7200      0    1.61e+00    0    1.11e+00
2006 05 31  0205    53886    7500      0    1.63e+00    0    1.14e+00
2006 05 31  0210    53886    7800      0    1.64e+00    0    1.14e+00
2006 05 31  0215    53886    8100      0    1.63e+00    0    1.15e+00
2006 05 31  0220    53886    8400      0    1.64e+00    0    1.15e+00
2006 05 31  0225    53886    8700      0    1.65e+00    0    1.16e+00
2006 05 31  0230    53886    9000      0    1.66e+00    0    1.16e+00
2006 05 31  0235    53886    9300      0    1.57e+00    0    1.10e+00
2006 05 31  0240    53886    9600      0    1.65e+00    0    1.16e+00
2006 05 31  0245    53886    9900      0    1.64e+00    0    1.16e+00
2006 05 31  0250    53886   10200      0    1.63e+00    0    1.15e+00
2006 05 31  0255    53886   10500      0    1.64e+00    0    1.15e+00
2006 05 31  0300    53886   10800      0    1.65e+00    0    1.17e+00
2006 05 31  0305    53886   11100      0    1.66e+00    0    1.16e+00
2006 05 31  0310    53886   11400      0    1.68e+00    0    1.19e+00
2006 05 31  0315    53886   11700      0    1.60e+00    0    1.12e+00
2006 05 31  0320    53886   12000      0    1.62e+00    0    1.12e+00
2006 05 31  0325    53886   12300      0    1.61e+00    0    1.12e+00
2006 05 31  0330    53886   12600      0    1.63e+00    0    1.15e+00
2006 05 31  0335    53886   12900      0    1.60e+00    0    1.11e+00
2006 05 31  0340    53886   13200      0    1.62e+00    0    1.14e+00
2006 05 31  0345    53886   13500      0    1.62e+00    0    1.14e+00
2006 05 31  0350    53886   13800      0    1.63e+00    0    1.14e+00
2006 05 31  0355    53886   14100      0    1.64e+00    0    1.15e+00
2006 05 31  0400    53886   14400      0    1.62e+00    0    1.13e+00
2006 05 31  0405    53886   14700      0    1.63e+00    0    1.15e+00
2006 05 31  0410    53886   15000      0    1.66e+00    0    1.17e+00
2006 05 31  0415    53886   15300      0    1.60e+00    0    1.13e+00
2006 05 31  0420    53886   15600      0    1.64e+00    0    1.15e+00
2006 05 31  0425    53886   15900      0    1.62e+00    0    1.13e+00
2006 05 31  0430    53886   16200      0    1.64e+00    0    1.14e+00
2006 05 31  0435    53886   16500      0    1.61e+00    0    1.13e+00
2006 05 31  0440    53886   16800      0    1.66e+00    0    1.15e+00
2006 05 31  0445    53886   17100      0    1.63e+00    0    1.13e+00
2006 05 31  0450    53886   17400      0    1.62e+00    0    1.13e+00
2006 05 31  0455    53886   17700      0    1.68e+00    0    1.18e+00
2006 05 31  0500    53886   18000      0    1.61e+00    0    1.11e+00
2006 05 31  0505    53886   18300      0    1.58e+00    0    1.10e+00
2006 05 31  0510    53886   18600      0    1.61e+00    0    1.14e+00
2006 05 31  0515    53886   18900      0    1.59e+00    0    1.12e+00
2006 05 31  0520    53886   19200      0    1.58e+00    0    1.09e+00
2006 05 31  0525    53886   19500      0    1.53e+00    0    1.08e+00
2006 05 31  0530    53886   19800      0    1.65e+00    0    1.17e+00
2006 05 31  0535    53886   20100      0    1.64e+00    0    1.14e+00
2006 05 31  0540    53886   20400      0    1.67e+00    0    1.18e+00
2006 05 31  0545    53886   20700      0    1.59e+00    0    1.11e+00
2006 05 31  0550    53886   21000      0    1.62e+00    0    1.14e+00
2006 05 31  0555    53886   21300      0    1.64e+00    0    1.14e+00
2006 05 31  0600    53886   21600      0    1.62e+00    0    1.14e+00
2006 05 31  0605    53886   21900      0    1.66e+00    0    1.16e+00
2006 05 31  0610    53886   22200      0    1.65e+00    0    1.15e+00
2006 05 31  0615    53886   22500      0    1.64e+00    0    1.15e+00
2006 05 31  0620    53886   22800      0    1.69e+00    0    1.18e+00
2006 05 31  0625    53886   23100      0    1.63e+00    0    1.14e+00
2006 05 31  0630    53886   23400      0    1.63e+00    0    1.16e+00
2006 05 31  0635    53886   23700      0    1.65e+00    0    1.15e+00
2006 05 31  0640    53886   24000      0    1.64e+00    0    1.15e+00
2006 05 31  0645    53886   24300      0    1.63e+00    0    1.15e+00
2006 05 31  0650    53886   24600      0    1.62e+00    0    1.14e+00
2006 05 31  0655    53886   24900      0    1.66e+00    0    1.17e+00
2006 05 31  0700    53886   25200      0    1.62e+00    0    1.14e+00
2006 05 31  0705    53886   25500      0    1.64e+00    0    1.16e+00
2006 05 31  0710    53886   25800      0    1.62e+00    0    1.13e+00
2006 05 31  0715    53886   26100      0    1.64e+00    0    1.13e+00
2006 05 31  0720    53886   26400      0    1.59e+00    0    1.10e+00
2006 05 31  0725    53886   26700      0    1.66e+00    0    1.16e+00
2006 05 31  0730    53886   27000      0    1.63e+00    0    1.13e+00
2006 05 31  0735    53886   27300      0    1.63e+00    0    1.15e+00
2006 05 31  0740    53886   27600      0    1.63e+00    0    1.13e+00
2006 05 31  0745    53886   27900      0    1.58e+00    0    1.10e+00
2006 05 31  0750    53886   28200      0    1.64e+00    0    1.16e+00
2006 05 31  0755    53886   28500      0    1.64e+00    0    1.15e+00
2006 05 31  0800    53886   28800      0    1.63e+00    0    1.14e+00
2006 05 31  0805    53886   29100      0    1.62e+00    0    1.13e+00
2006 05 31  0810    53886   29400      0    1.62e+00    0    1.14e+00
2006 05 31  0815    53886   29700      0    1.64e+00    0    1.16e+00
2006 05 31  0820    53886   30000      0    1.62e+00    0    1.12e+00
2006 05 31  0825    53886   30300      0    1.61e+00    0    1.13e+00
2006 05 31  0830    53886   30600      0    1.60e+00    0    1.12e+00
2006 05 31  0835    53886   30900      0    1.63e+00    0    1.14e+00
2006 05 31  0840    53886   31200      0    1.61e+00    0    1.13e+00
2006 05 31  0845    53886   31500      0    1.63e+00    0    1.15e+00
2006 05 31  0850    53886   31800      0    1.62e+00    0    1.12e+00
2006 05 31  0855    53886   32100      0    1.63e+00    0    1.15e+00
2006 05 31  0900    53886   32400      0    1.55e+00    0    1.08e+00
2006 05 31  0905    53886   32700      0    1.61e+00    0    1.13e+00
2006 05 31  0910    53886   33000      0    1.63e+00    0    1.14e+00
2006 05 31  0915    53886   33300      0    1.65e+00    0    1.15e+00
2006 05 31  0920    53886   33600      0    1.64e+00    0    1.15e+00
2006 05 31  0925    53886   33900      0    1.62e+00    0    1.14e+00
2006 05 31  0930    53886   34200      0    1.59e+00    0    1.12e+00
2006 05 31  0935    53886   34500      0    1.63e+00    0    1.14e+00
2006 05 31  0940    53886   34800      0    1.64e+00    0    1.15e+00
2006 05 31  0945    53886   35100      0    1.65e+00    0    1.15e+00
2006 05 31  0950    53886   35400      0    1.60e+00    0    1.12e+00
2006 05 31  0955    53886   35700      0    1.61e+00    0    1.14e+00
2006 05 31  1000    53886   36000      0    1.60e+00    0    1.12e+00
2006 05 31  1005    53886   36300      0    1.61e+00    0    1.13e+00
2006 05 31  1010    53886   36600      0    1.63e+00    0    1.14e+00
2006 05 31  1015    53886   36900      0    1.62e+00    0    1.15e+00
2006 05 31  1020    53886   37200      0    1.61e+00    0    1.13e+00
2006 05 31  1025    53886   37500      0    1.65e+00    0    1.15e+00
2006 05 31  1030    53886   37800      0    1.54e+00    0    1.09e+00
2006 05 31  1035    53886   38100      0    1.62e+00    0    1.15e+00
2006 05 31  1040    53886   38400      0    1.57e+00    0    1.09e+00
2006 05 31  1045    53886   38700      0    1.56e+00    0    1.10e+00
2006 05 31  1050    53886   39000      0    1.62e+00    0    1.15e+00
2006 05 31  1055    53886   39300      0    1.65e+00    0    1.17e+00
2006 05 31  1100    53886   39600      0    1.66e+00    0    1.16e+00
2006 05 31  1105    53886   39900      0    1.64e+00    0    1.16e+00
2006 05 31  1110    53886   40200      0    1.59e+00    0    1.12e+00
2006 05 31  1115    53886   40500      0    1.60e+00    0    1.12e+00
2006 05 31  1120    53886   40800      0    1.62e+00    0    1.13e+00
2006 05 31  1125    53886   41100      0    1.65e+00    0    1.16e+00
2006 05 31  1130    53886   41400      0    1.62e+00    0    1.12e+00
2006 05 31  1135    53886   41700      0    1.60e+00    0    1.11e+00
2006 05 31  1140    53886   42000      0    1.61e+00    0    1.13e+00
2006 05 31  1145    53886   42300      0    1.63e+00    0    1.15e+00
2006 05 31  1150    53886   42600      0    1.62e+00    0    1.14e+00
2006 05 31  1155    53886   42900      0    1.60e+00    0    1.12e+00
2006 05 31  1200    53886   43200      0    1.64e+00    0    1.14e+00
2006 05 31  1205    53886   43500      0    1.61e+00    0    1.13e+00
2006 05 31  1210    53886   43800      0    1.60e+00    0    1.12e+00
2006 05 31  1215    53886   44100      0    1.58e+00    0    1.10e+00
2006 05 31  1220    53886   44400      0    1.58e+00    0    1.11e+00
2006 05 31  1225    53886   44700      0    1.62e+00    0    1.14e+00
2006 05 31  1230    53886   45000      0    1.60e+00    0    1.12e+00
2006 05 31  1235    53886   45300      0    1.63e+00    0    1.14e+00
2006 05 31  1240    53886   45600      0    1.60e+00    0    1.12e+00
2006 05 31  1245    53886   45900      0    1.61e+00    0    1.13e+00
2006 05 31  1250    53886   46200      0    1.62e+00    0    1.13e+00
2006 05 31  1255    53886   46500      0    1.64e+00    0    1.15e+00
2006 05 31  1300    53886   46800      0    1.64e+00    0    1.16e+00
2006 05 31  1305    53886   47100      0    1.57e+00    0    1.11e+00
2006 05 31  1310    53886   47400      0    1.66e+00    0    1.15e+00
2006 05 31  1315    53886   47700      0    1.62e+00    0    1.14e+00
2006 05 31  1320    53886   48000      0    1.62e+00    0    1.12e+00
2006 05 31  1325    53886   48300      0    1.60e+00    0    1.13e+00
2006 05 31  1330    53886   48600      0    1.62e+00    0    1.14e+00
2006 05 31  1335    53886   48900      0    1.61e+00    0    1.13e+00
2006 05 31  1340    53886   49200      0    1.61e+00    0    1.13e+00
2006 05 31  1345    53886   49500      0    1.62e+00    0    1.12e+00
2006 05 31  1350    53886   49800      0    1.65e+00    0    1.16e+00
2006 05 31  1355    53886   50100      0    1.60e+00    0    1.11e+00
2006 05 31  1400    53886   50400      0    1.62e+00    0    1.14e+00
2006 05 31  1405    53886   50700      0    1.60e+00    0    1.13e+00
2006 05 31  1410    53886   51000      0    1.60e+00    0    1.12e+00
2006 05 31  1415    53886   51300      0    1.60e+00    0    1.12e+00
2006 05 31  1420    53886   51600      0    1.61e+00    0    1.13e+00
2006 05 31  1425    53886   51900      0    1.59e+00    0    1.11e+00
2006 05 31  1430    53886   52200      0    1.62e+00    0    1.14e+00
2006 05 31  1435    53886   52500      0    1.66e+00    0    1.17e+00
2006 05 31  1440    53886   52800      0    1.64e+00    0    1.15e+00
2006 05 31  1445    53886   53100      0    1.62e+00    0    1.14e+00
2006 05 31  1450    53886   53400      0    1.63e+00    0    1.14e+00
2006 05 31  1455    53886   53700      0    1.62e+00    0    1.13e+00
2006 05 31  1500    53886   54000      0    1.63e+00    0    1.16e+00
2006 05 31  1505    53886   54300      0    1.63e+00    0    1.14e+00
2006 05 31  1510    53886   54600      0    1.58e+00    0    1.09e+00
2006 05 31  1515    53886   54900      0    1.60e+00    0    1.12e+00
2006 05 31  1520    53886   55200      0    1.62e+00    0    1.14e+00
2006 05 31  1525    53886   55500      0    1.61e+00    0    1.14e+00
2006 05 31  1530    53886   55800      0    1.58e+00    0    1.11e+00
2006 05 31  1535    53886   56100      0    1.62e+00    0    1.13e+00
2006 05 31  1540    53886   56400      0    1.62e+00    0    1.14e+00
2006 05 31  1545    53886   56700      0    1.62e+00    0    1.13e+00
2006 05 31  1550    53886   57000      0    1.61e+00    0    1.12e+00
2006 05 31  1555    53886   57300      0    1.59e+00    0    1.11e+00
2006 05 31  1600    53886   57600      0    1.60e+00    0    1.12e+00
2006 05 31  1605    53886   57900      0    1.58e+00    0    1.10e+00
2006 05 31  1610    53886   58200      0    1.62e+00    0    1.15e+00
2006 05 31  1615    53886   58500      0    1.64e+00    0    1.15e+00
2006 05 31  1620    53886   58800      0    1.63e+00    0    1.15e+00
2006 05 31  1625    53886   59100      0    1.63e+00    0    1.15e+00
2006 05 31  1630    53886   59400      0    1.59e+00    0    1.11e+00
2006 05 31  1635    53886   59700      0    1.60e+00    0    1.13e+00
2006 05 31  1640    53886   60000      0    1.59e+00    0    1.10e+00
2006 05 31  1645    53886   60300      0    1.60e+00    0    1.11e+00
2006 05 31  1650    53886   60600      0    1.59e+00    0    1.11e+00
2006 05 31  1655    53886   60900      0    1.62e+00    0    1.15e+00
2006 05 31  1700    53886   61200      0    1.60e+00    0    1.11e+00
2006 05 31  1705    53886   61500      0    1.62e+00    0    1.12e+00
2006 05 31  1710    53886   61800      0    1.62e+00    0    1.13e+00
2006 05 31  1715    53886   62100      0    1.59e+00    0    1.11e+00
2006 05 31  1720    53886   62400      0    1.61e+00    0    1.12e+00
2006 05 31  1725    53886   62700      0    1.58e+00    0    1.10e+00
2006 05 31  1730    53886   63000      0    1.61e+00    0    1.12e+00
2006 05 31  1735    53886   63300      0    1.61e+00    0    1.13e+00
2006 05 31  1740    53886   63600      0    1.58e+00    0    1.11e+00
2006 05 31  1745    53886   63900      0    1.61e+00    0    1.13e+00
2006 05 31  1750    53886   64200      0    1.63e+00    0    1.15e+00
2006 05 31  1755    53886   64500      0    1.59e+00    0    1.12e+00
2006 05 31  1800    53886   64800      0    1.63e+00    0    1.14e+00
2006 05 31  1805    53886   65100      0    1.64e+00    0    1.16e+00
2006 05 31  1810    53886   65400      0    1.58e+00    0    1.11e+00
2006 05 31  1815    53886   65700      0    1.60e+00    0    1.12e+00
2006 05 31  1820    53886   66000      0    1.60e+00    0    1.12e+00
2006 05 31  1825    53886   66300      0    1.56e+00    0    1.09e+00
2006 05 31  1830    53886   66600      0    1.60e+00    0    1.11e+00
2006 05 31  1835    53886   66900      0    1.64e+00    0    1.15e+00
2006 05 31  1840    53886   67200      0    1.60e+00    0    1.11e+00
2006 05 31  1845    53886   67500      0    1.61e+00    0    1.13e+00
2006 05 31  1850    53886   67800      0    1.65e+00    0    1.16e+00
2006 05 31  1855    53886   68100      0    1.63e+00    0    1.16e+00
2006 05 31  1900    53886   68400      0    1.63e+00    0    1.14e+00
2006 05 31  1905    53886   68700      0    1.65e+00    0    1.15e+00
2006 05 31  1910    53886   69000      0    1.60e+00    0    1.13e+00
2006 05 31  1915    53886   69300      0    1.62e+00    0    1.13e+00
2006 05 31  1920    53886   69600      0    1.60e+00    0    1.13e+00
2006 05 31  1925    53886   69900      0    1.62e+00    0    1.14e+00
2006 05 31  1930    53886   70200      0    1.59e+00    0    1.11e+00
2006 05 31  1935    53886   70500      0    1.58e+00    0    1.11e+00
2006 05 31  1940    53886   70800      0    1.62e+00    0    1.13e+00
2006 05 31  1945    53886   71100      0    1.62e+00    0    1.13e+00
2006 05 31  1950    53886   71400      0    1.58e+00    0    1.10e+00
2006 05 31  1955    53886   71700      0    1.62e+00    0    1.13e+00
2006 05 31  2000    53886   72000      0    1.61e+00    0    1.12e+00
2006 05 31  2005    53886   72300      0    1.62e+00    0    1.15e+00
2006 05 31  2010    53886   72600      0    1.60e+00    0    1.12e+00
2006 05 31  2015    53886   72900      0    1.60e+00    0    1.11e+00
2006 05 31  2020    53886   73200      0    1.60e+00    0    1.13e+00
2006 05 31  2025    53886   73500      0    1.63e+00    0    1.14e+00
2006 05 31  2030    53886   73800      0    1.63e+00    0    1.12e+00
2006 05 31  2035    53886   74100      0    1.62e+00    0    1.13e+00
2006 05 31  2040    53886   74400      0    1.61e+00    0    1.12e+00
2006 05 31  2045    53886   74700      0    1.62e+00    0    1.13e+00
2006 05 31  2050    53886   75000      0    1.64e+00    0    1.15e+00
2006 05 31  2055    53886   75300      0    1.59e+00    0    1.12e+00
2006 05 31  2100    53886   75600      0    1.63e+00    0    1.15e+00
2006 05 31  2105    53886   75900      0    1.62e+00    0    1.14e+00
2006 05 31  2110    53886   76200      0    1.59e+00    0    1.11e+00
2006 05 31  2115    53886   76500      0    1.58e+00    0    1.11e+00
2006 05 31  2120    53886   76800      0    1.61e+00    0    1.13e+00
2006 05 31  2125    53886   77100      0    1.62e+00    0    1.13e+00
2006 05 31  2130    53886   77400      0    1.60e+00    0    1.13e+00
2006 05 31  2135    53886   77700      0    1.62e+00    0    1.14e+00
2006 05 31  2140    53886   78000      0    1.63e+00    0    1.14e+00
2006 05 31  2145    53886   78300      0    1.65e+00    0    1.16e+00
2006 05 31  2150    53886   78600      0    1.63e+00    0    1.15e+00
2006 05 31  2155    53886   78900      0    1.63e+00    0    1.14e+00
2006 05 31  2200    53886   79200      0    1.61e+00    0    1.14e+00
2006 05 31  2205    53886   79500      0    1.63e+00    0    1.15e+00
2006 05 31  2210    53886   79800      0    1.58e+00    0    1.10e+00
2006 05 31  2215    53886   80100      0    1.62e+00    0    1.14e+00
2006 05 31  2220    53886   80400      0    1.62e+00    0    1.14e+00
2006 05 31  2225    53886   80700      0    1.62e+00    0    1.13e+00
2006 05 31  2230    53886   81000      0    1.62e+00    0    1.14e+00
2006 05 31  2235    53886   81300      0    1.63e+00    0    1.16e+00
2006 05 31  2240    53886   81600      0    1.61e+00    0    1.14e+00
2006 05 31  2245    53886   81900      0    1.60e+00    0    1.12e+00
2006 05 31  2250    53886   82200      0    1.62e+00    0    1.14e+00
2006 05 31  2255    53886   82500      0    1.60e+00    0    1.13e+00
2006 05 31  2300    53886   82800      0    1.62e+00    0    1.14e+00
2006 05 31  2305    53886   83100      0    1.62e+00    0    1.14e+00
2006 05 31  2310    53886   83400      0    1.64e+00    0    1.16e+00
2006 05 31  2315    53886   83700      0    1.60e+00    0    1.13e+00
2006 05 31  2320    53886   84000      0    1.61e+00    0    1.14e+00
2006 05 31  2325    53886   84300      0    1.60e+00    0    1.12e+00
2006 05 31  2330    53886   84600      0    1.61e+00    0    1.12e+00
2006 05 31  2335    53886   84900      0    1.58e+00    0    1.11e+00
2006 05 31  2340    53886   85200      0    1.61e+00    0    1.12e+00
2006 05 31  2345    53886   85500      0    1.63e+00    0    1.14e+00
2006 05 31  2350    53886   85800      0    1.59e+00    0    1.11e+00
2006 05 31  2355    53886   86100      0    1.60e+00    0    1.13e+00
