:Data_list: 20061229_ace_sis_5m.txt
:Created: 2006 Dec 30 0011 UT
# Prepared by the U.S. Dept. of Commerce, NOAA, Space Environment Center.
# Please send comments and suggestions to SEC.Webmaster@noaa.gov 
# 
# Units: proton flux p/cs2-sec-ster
# Status(S): 0 = nominal data, 1 to 8 = bad data record, 9 = no data
# Missing data values: -1.00e+05
# Source: ACE Satellite - Solar Isotope Spectrometer
#
# 5-minute averaged Real-time Integral Flux of High-energy Solar Protons
# 
#                 Modified Seconds
# UT Date   Time   Julian  of the      ---- Integral Proton Flux ----
# YR MO DA  HHMM     Day     Day       S    > 10 MeV    S    > 30 MeV
#--------------------------------------------------------------------
2006 12 29  0000    54098       0      0    1.90e+00    0    1.35e+00
2006 12 29  0005    54098     300      0    2.24e+00    0    1.56e+00
2006 12 29  0010    54098     600      0    2.23e+00    0    1.57e+00
2006 12 29  0015    54098     900      0    2.17e+00    0    1.53e+00
2006 12 29  0020    54098    1200      0    2.12e+00    0    1.50e+00
2006 12 29  0025    54098    1500      0    2.08e+00    0    1.47e+00
2006 12 29  0030    54098    1800      0    1.89e+00    0    1.32e+00
2006 12 29  0035    54098    2100      0    1.91e+00    0    1.31e+00
2006 12 29  0040    54098    2400      0    2.25e+00    0    1.56e+00
2006 12 29  0045    54098    2700      0    2.17e+00    0    1.53e+00
2006 12 29  0050    54098    3000      0    2.09e+00    0    1.47e+00
2006 12 29  0055    54098    3300      0    2.06e+00    0    1.43e+00
2006 12 29  0100    54098    3600      0    1.98e+00    0    1.41e+00
2006 12 29  0105    54098    3900      0    1.82e+00    0    1.28e+00
2006 12 29  0110    54098    4200      0    2.03e+00    0    1.43e+00
2006 12 29  0115    54098    4500      0    2.11e+00    0    1.48e+00
2006 12 29  0120    54098    4800      0    2.18e+00    0    1.53e+00
2006 12 29  0125    54098    5100      0    2.18e+00    0    1.53e+00
2006 12 29  0130    54098    5400      0    2.07e+00    0    1.45e+00
2006 12 29  0135    54098    5700      0    2.00e+00    0    1.42e+00
2006 12 29  0140    54098    6000      0    1.82e+00    0    1.27e+00
2006 12 29  0145    54098    6300      0    2.04e+00    0    1.44e+00
2006 12 29  0150    54098    6600      0    2.26e+00    0    1.59e+00
2006 12 29  0155    54098    6900      0    2.13e+00    0    1.48e+00
2006 12 29  0200    54098    7200      0    2.14e+00    0    1.49e+00
2006 12 29  0205    54098    7500      0    2.04e+00    0    1.43e+00
2006 12 29  0210    54098    7800      0    1.96e+00    0    1.39e+00
2006 12 29  0215    54098    8100      0    1.85e+00    0    1.30e+00
2006 12 29  0220    54098    8400      0    2.08e+00    0    1.46e+00
2006 12 29  0225    54098    8700      0    2.24e+00    0    1.58e+00
2006 12 29  0230    54098    9000      0    2.19e+00    0    1.55e+00
2006 12 29  0235    54098    9300      0    2.10e+00    0    1.49e+00
2006 12 29  0240    54098    9600      0    2.08e+00    0    1.46e+00
2006 12 29  0245    54098    9900      0    1.97e+00    0    1.37e+00
2006 12 29  0250    54098   10200      0    1.93e+00    0    1.35e+00
2006 12 29  0255    54098   10500      0    2.19e+00    0    1.55e+00
2006 12 29  0300    54098   10800      0    2.19e+00    0    1.51e+00
2006 12 29  0305    54098   11100      0    2.17e+00    0    1.53e+00
2006 12 29  0310    54098   11400      0    2.09e+00    0    1.47e+00
2006 12 29  0315    54098   11700      0    2.09e+00    0    1.46e+00
2006 12 29  0320    54098   12000      0    1.96e+00    0    1.39e+00
2006 12 29  0325    54098   12300      0    1.89e+00    0    1.33e+00
2006 12 29  0330    54098   12600      0    2.22e+00    0    1.56e+00
2006 12 29  0335    54098   12900      0    2.15e+00    0    1.52e+00
2006 12 29  0340    54098   13200      0    2.15e+00    0    1.50e+00
2006 12 29  0345    54098   13500      0    2.05e+00    0    1.43e+00
2006 12 29  0350    54098   13800      0    1.99e+00    0    1.38e+00
2006 12 29  0355    54098   14100      0    1.81e+00    0    1.25e+00
2006 12 29  0400    54098   14400      0    1.93e+00    0    1.34e+00
2006 12 29  0405    54098   14700      0    2.29e+00    0    1.60e+00
2006 12 29  0410    54098   15000      0    2.04e+00    0    1.42e+00
2006 12 29  0415    54098   15300      0    2.14e+00    0    1.51e+00
2006 12 29  0420    54098   15600      0    2.01e+00    0    1.41e+00
2006 12 29  0425    54098   15900      0    1.90e+00    0    1.35e+00
2006 12 29  0430    54098   16200      0    1.77e+00    0    1.24e+00
2006 12 29  0435    54098   16500      0    1.96e+00    0    1.38e+00
2006 12 29  0440    54098   16800      0    2.22e+00    0    1.57e+00
2006 12 29  0445    54098   17100      0    2.12e+00    0    1.50e+00
2006 12 29  0450    54098   17400      0    2.14e+00    0    1.49e+00
2006 12 29  0455    54098   17700      0    1.93e+00    0    1.35e+00
2006 12 29  0500    54098   18000      0    1.90e+00    0    1.34e+00
2006 12 29  0505    54098   18300      0    1.78e+00    0    1.24e+00
2006 12 29  0510    54098   18600      0    2.05e+00    0    1.44e+00
2006 12 29  0515    54098   18900      0    2.19e+00    0    1.53e+00
2006 12 29  0520    54098   19200      0    2.11e+00    0    1.48e+00
2006 12 29  0525    54098   19500      0    2.09e+00    0    1.47e+00
2006 12 29  0530    54098   19800      0    1.96e+00    0    1.36e+00
2006 12 29  0535    54098   20100      0    1.87e+00    0    1.30e+00
2006 12 29  0540    54098   20400      0    1.80e+00    0    1.27e+00
2006 12 29  0545    54098   20700      0    2.10e+00    0    1.47e+00
2006 12 29  0550    54098   21000      0    2.22e+00    0    1.54e+00
2006 12 29  0555    54098   21300      0    2.11e+00    0    1.48e+00
2006 12 29  0600    54098   21600      0    2.05e+00    0    1.43e+00
2006 12 29  0605    54098   21900      0    1.99e+00    0    1.41e+00
2006 12 29  0610    54098   22200      0    1.84e+00    0    1.28e+00
2006 12 29  0615    54098   22500      0    1.77e+00    0    1.24e+00
2006 12 29  0620    54098   22800      0    2.22e+00    0    1.55e+00
2006 12 29  0625    54098   23100      0    2.22e+00    0    1.55e+00
2006 12 29  0630    54098   23400      0    2.11e+00    0    1.49e+00
2006 12 29  0635    54098   23700      0    2.03e+00    0    1.41e+00
2006 12 29  0640    54098   24000      0    1.91e+00    0    1.33e+00
2006 12 29  0645    54098   24300      9   -1.00e+05    9   -1.00e+05
2006 12 29  0650    54098   24600      9   -1.00e+05    9   -1.00e+05
2006 12 29  0655    54098   24900      9   -1.00e+05    9   -1.00e+05
2006 12 29  0700    54098   25200      9   -1.00e+05    9   -1.00e+05
2006 12 29  0705    54098   25500      9   -1.00e+05    9   -1.00e+05
2006 12 29  0710    54098   25800      0    1.97e+00    0    1.37e+00
2006 12 29  0715    54098   26100      0    1.95e+00    0    1.37e+00
2006 12 29  0720    54098   26400      0    1.73e+00    0    1.22e+00
2006 12 29  0725    54098   26700      0    1.87e+00    0    1.32e+00
2006 12 29  0730    54098   27000      0    2.19e+00    0    1.54e+00
2006 12 29  0735    54098   27300      0    2.10e+00    0    1.49e+00
2006 12 29  0740    54098   27600      0    2.11e+00    0    1.47e+00
2006 12 29  0745    54098   27900      0    1.88e+00    0    1.32e+00
2006 12 29  0750    54098   28200      0    1.86e+00    0    1.31e+00
2006 12 29  0755    54098   28500      0    1.76e+00    0    1.25e+00
2006 12 29  0800    54098   28800      0    1.94e+00    0    1.36e+00
2006 12 29  0805    54098   29100      0    2.20e+00    0    1.57e+00
2006 12 29  0810    54098   29400      0    2.08e+00    0    1.46e+00
2006 12 29  0815    54098   29700      0    2.02e+00    0    1.42e+00
2006 12 29  0820    54098   30000      0    1.88e+00    0    1.34e+00
2006 12 29  0825    54098   30300      0    1.79e+00    0    1.26e+00
2006 12 29  0830    54098   30600      0    1.74e+00    0    1.22e+00
2006 12 29  0835    54098   30900      0    2.00e+00    0    1.41e+00
2006 12 29  0840    54098   31200      0    2.18e+00    0    1.53e+00
2006 12 29  0845    54098   31500      0    2.08e+00    0    1.46e+00
2006 12 29  0850    54098   31800      0    2.06e+00    0    1.46e+00
2006 12 29  0855    54098   32100      0    1.80e+00    0    1.24e+00
2006 12 29  0900    54098   32400      0    1.82e+00    0    1.29e+00
2006 12 29  0905    54098   32700      0    1.76e+00    0    1.22e+00
2006 12 29  0910    54098   33000      0    2.10e+00    0    1.47e+00
2006 12 29  0915    54098   33300      0    2.15e+00    0    1.50e+00
2006 12 29  0920    54098   33600      0    2.11e+00    0    1.48e+00
2006 12 29  0925    54098   33900      0    2.06e+00    0    1.46e+00
2006 12 29  0930    54098   34200      0    1.94e+00    0    1.36e+00
2006 12 29  0935    54098   34500      0    1.74e+00    0    1.20e+00
2006 12 29  0940    54098   34800      0    1.71e+00    0    1.19e+00
2006 12 29  0945    54098   35100      0    2.18e+00    0    1.55e+00
2006 12 29  0950    54098   35400      0    2.15e+00    0    1.51e+00
2006 12 29  0955    54098   35700      0    1.98e+00    0    1.39e+00
2006 12 29  1000    54098   36000      0    2.00e+00    0    1.39e+00
2006 12 29  1005    54098   36300      0    1.88e+00    0    1.31e+00
2006 12 29  1010    54098   36600      0    1.74e+00    0    1.22e+00
2006 12 29  1015    54098   36900      0    1.85e+00    0    1.29e+00
2006 12 29  1020    54098   37200      0    2.20e+00    0    1.55e+00
2006 12 29  1025    54098   37500      0    2.18e+00    0    1.53e+00
2006 12 29  1030    54098   37800      0    2.08e+00    0    1.45e+00
2006 12 29  1035    54098   38100      0    1.97e+00    0    1.37e+00
2006 12 29  1040    54098   38400      0    1.91e+00    0    1.34e+00
2006 12 29  1045    54098   38700      0    1.76e+00    0    1.24e+00
2006 12 29  1050    54098   39000      0    1.95e+00    0    1.38e+00
2006 12 29  1055    54098   39300      0    2.23e+00    0    1.57e+00
2006 12 29  1100    54098   39600      0    2.18e+00    0    1.52e+00
2006 12 29  1105    54098   39900      0    2.08e+00    0    1.46e+00
2006 12 29  1110    54098   40200      0    1.96e+00    0    1.39e+00
2006 12 29  1115    54098   40500      0    1.94e+00    0    1.35e+00
2006 12 29  1120    54098   40800      0    1.77e+00    0    1.24e+00
2006 12 29  1125    54098   41100      0    2.01e+00    0    1.42e+00
2006 12 29  1130    54098   41400      0    2.14e+00    0    1.51e+00
2006 12 29  1135    54098   41700      0    2.07e+00    0    1.46e+00
2006 12 29  1140    54098   42000      0    2.13e+00    0    1.50e+00
2006 12 29  1145    54098   42300      0    1.95e+00    0    1.37e+00
2006 12 29  1150    54098   42600      0    1.87e+00    0    1.31e+00
2006 12 29  1155    54098   42900      0    1.76e+00    0    1.24e+00
2006 12 29  1200    54098   43200      0    2.02e+00    0    1.42e+00
2006 12 29  1205    54098   43500      0    2.19e+00    0    1.54e+00
2006 12 29  1210    54098   43800      0    2.07e+00    0    1.45e+00
2006 12 29  1215    54098   44100      0    2.06e+00    0    1.46e+00
2006 12 29  1220    54098   44400      0    1.95e+00    0    1.37e+00
2006 12 29  1225    54098   44700      0    1.80e+00    0    1.27e+00
2006 12 29  1230    54098   45000      0    1.74e+00    0    1.22e+00
2006 12 29  1235    54098   45300      0    2.16e+00    0    1.51e+00
2006 12 29  1240    54098   45600      0    2.13e+00    0    1.48e+00
2006 12 29  1245    54098   45900      0    2.11e+00    0    1.47e+00
2006 12 29  1250    54098   46200      0    1.95e+00    0    1.36e+00
2006 12 29  1255    54098   46500      0    1.95e+00    0    1.36e+00
2006 12 29  1300    54098   46800      0    1.84e+00    0    1.28e+00
2006 12 29  1305    54098   47100      0    1.79e+00    0    1.27e+00
2006 12 29  1310    54098   47400      0    2.19e+00    0    1.52e+00
2006 12 29  1315    54098   47700      0    2.13e+00    0    1.50e+00
2006 12 29  1320    54098   48000      0    2.09e+00    0    1.46e+00
2006 12 29  1325    54098   48300      0    2.02e+00    0    1.44e+00
2006 12 29  1330    54098   48600      0    1.93e+00    0    1.36e+00
2006 12 29  1335    54098   48900      0    1.71e+00    0    1.20e+00
2006 12 29  1340    54098   49200      0    1.85e+00    0    1.29e+00
2006 12 29  1345    54098   49500      0    2.19e+00    0    1.54e+00
2006 12 29  1350    54098   49800      0    2.17e+00    0    1.51e+00
2006 12 29  1355    54098   50100      0    2.12e+00    0    1.49e+00
2006 12 29  1400    54098   50400      0    1.98e+00    0    1.39e+00
2006 12 29  1405    54098   50700      0    1.94e+00    0    1.34e+00
2006 12 29  1410    54098   51000      0    1.75e+00    0    1.21e+00
2006 12 29  1415    54098   51300      0    1.90e+00    0    1.33e+00
2006 12 29  1420    54098   51600      0    2.23e+00    0    1.56e+00
2006 12 29  1425    54098   51900      0    2.14e+00    0    1.52e+00
2006 12 29  1430    54098   52200      0    2.17e+00    0    1.54e+00
2006 12 29  1435    54098   52500      0    1.91e+00    0    1.33e+00
2006 12 29  1440    54098   52800      0    1.96e+00    0    1.36e+00
2006 12 29  1445    54098   53100      0    1.77e+00    0    1.25e+00
2006 12 29  1450    54098   53400      0    2.07e+00    0    1.45e+00
2006 12 29  1455    54098   53700      0    2.25e+00    0    1.59e+00
2006 12 29  1500    54098   54000      0    2.19e+00    0    1.56e+00
2006 12 29  1505    54098   54300      0    2.13e+00    0    1.49e+00
2006 12 29  1510    54098   54600      0    2.03e+00    0    1.42e+00
2006 12 29  1515    54098   54900      0    1.91e+00    0    1.34e+00
2006 12 29  1520    54098   55200      0    1.77e+00    0    1.24e+00
2006 12 29  1525    54098   55500      0    2.12e+00    0    1.49e+00
2006 12 29  1530    54098   55800      0    2.21e+00    0    1.55e+00
2006 12 29  1535    54098   56100      0    2.12e+00    0    1.51e+00
2006 12 29  1540    54098   56400      0    2.06e+00    0    1.44e+00
2006 12 29  1545    54098   56700      0    1.98e+00    0    1.41e+00
2006 12 29  1550    54098   57000      0    1.85e+00    0    1.29e+00
2006 12 29  1555    54098   57300      0    1.76e+00    0    1.22e+00
2006 12 29  1600    54098   57600      0    2.16e+00    0    1.51e+00
2006 12 29  1605    54098   57900      0    2.20e+00    0    1.55e+00
2006 12 29  1610    54098   58200      0    2.12e+00    0    1.50e+00
2006 12 29  1615    54098   58500      0    2.07e+00    0    1.44e+00
2006 12 29  1620    54098   58800      0    2.02e+00    0    1.42e+00
2006 12 29  1625    54098   59100      0    1.80e+00    0    1.27e+00
2006 12 29  1630    54098   59400      0    1.85e+00    0    1.31e+00
2006 12 29  1635    54098   59700      0    2.21e+00    0    1.54e+00
2006 12 29  1640    54098   60000      0    2.18e+00    0    1.52e+00
2006 12 29  1645    54098   60300      0    2.13e+00    0    1.50e+00
2006 12 29  1650    54098   60600      0    2.09e+00    0    1.44e+00
2006 12 29  1655    54098   60900      0    2.06e+00    0    1.44e+00
2006 12 29  1700    54098   61200      0    1.85e+00    0    1.30e+00
2006 12 29  1705    54098   61500      0    1.95e+00    0    1.37e+00
2006 12 29  1710    54098   61800      0    2.24e+00    0    1.57e+00
2006 12 29  1715    54098   62100      0    2.16e+00    0    1.53e+00
2006 12 29  1720    54098   62400      0    2.16e+00    0    1.51e+00
2006 12 29  1725    54098   62700      0    2.03e+00    0    1.41e+00
2006 12 29  1730    54098   63000      0    1.95e+00    0    1.36e+00
2006 12 29  1735    54098   63300      0    1.81e+00    0    1.27e+00
2006 12 29  1740    54098   63600      0    1.98e+00    0    1.39e+00
2006 12 29  1745    54098   63900      0    2.18e+00    0    1.54e+00
2006 12 29  1750    54098   64200      0    2.19e+00    0    1.53e+00
2006 12 29  1755    54098   64500      0    2.13e+00    0    1.50e+00
2006 12 29  1800    54098   64800      0    1.97e+00    0    1.39e+00
2006 12 29  1805    54098   65100      0    1.92e+00    0    1.36e+00
2006 12 29  1810    54098   65400      0    1.75e+00    0    1.21e+00
2006 12 29  1815    54098   65700      0    2.07e+00    0    1.45e+00
2006 12 29  1820    54098   66000      0    2.20e+00    0    1.54e+00
2006 12 29  1825    54098   66300      0    2.16e+00    0    1.50e+00
2006 12 29  1830    54098   66600      0    2.07e+00    0    1.46e+00
2006 12 29  1835    54098   66900      0    1.90e+00    0    1.33e+00
2006 12 29  1840    54098   67200      0    1.89e+00    0    1.31e+00
2006 12 29  1845    54098   67500      0    1.74e+00    0    1.22e+00
2006 12 29  1850    54098   67800      0    2.10e+00    0    1.48e+00
2006 12 29  1855    54098   68100      0    2.19e+00    0    1.55e+00
2006 12 29  1900    54098   68400      0    2.09e+00    0    1.47e+00
2006 12 29  1905    54098   68700      0    2.04e+00    0    1.44e+00
2006 12 29  1910    54098   69000      0    1.93e+00    0    1.35e+00
2006 12 29  1915    54098   69300      0    1.79e+00    0    1.25e+00
2006 12 29  1920    54098   69600      0    1.74e+00    0    1.23e+00
2006 12 29  1925    54098   69900      0    2.23e+00    0    1.58e+00
2006 12 29  1930    54098   70200      0    2.21e+00    0    1.55e+00
2006 12 29  1935    54098   70500      0    2.09e+00    0    1.47e+00
2006 12 29  1940    54098   70800      0    2.05e+00    0    1.45e+00
2006 12 29  1945    54098   71100      0    1.99e+00    0    1.39e+00
2006 12 29  1950    54098   71400      0    1.79e+00    0    1.26e+00
2006 12 29  1955    54098   71700      0    1.83e+00    0    1.29e+00
2006 12 29  2000    54098   72000      0    2.18e+00    0    1.53e+00
2006 12 29  2005    54098   72300      0    2.19e+00    0    1.55e+00
2006 12 29  2010    54098   72600      0    2.16e+00    0    1.52e+00
2006 12 29  2015    54098   72900      0    2.01e+00    0    1.43e+00
2006 12 29  2020    54098   73200      0    1.95e+00    0    1.39e+00
2006 12 29  2025    54098   73500      0    1.74e+00    0    1.21e+00
2006 12 29  2030    54098   73800      0    1.87e+00    0    1.31e+00
2006 12 29  2035    54098   74100      0    2.20e+00    0    1.55e+00
2006 12 29  2040    54098   74400      0    2.14e+00    0    1.48e+00
2006 12 29  2045    54098   74700      0    2.10e+00    0    1.49e+00
2006 12 29  2050    54098   75000      0    1.91e+00    0    1.36e+00
2006 12 29  2055    54098   75300      0    1.91e+00    0    1.34e+00
2006 12 29  2100    54098   75600      0    1.75e+00    0    1.22e+00
2006 12 29  2105    54098   75900      0    1.85e+00    0    1.29e+00
2006 12 29  2110    54098   76200      0    2.21e+00    0    1.55e+00
2006 12 29  2115    54098   76500      0    2.16e+00    0    1.53e+00
2006 12 29  2120    54098   76800      0    2.10e+00    0    1.48e+00
2006 12 29  2125    54098   77100      0    1.97e+00    0    1.38e+00
2006 12 29  2130    54098   77400      0    1.96e+00    0    1.37e+00
2006 12 29  2135    54098   77700      0    1.75e+00    0    1.22e+00
2006 12 29  2140    54098   78000      0    2.08e+00    0    1.45e+00
2006 12 29  2145    54098   78300      0    2.26e+00    0    1.59e+00
2006 12 29  2150    54098   78600      0    2.12e+00    0    1.49e+00
2006 12 29  2155    54098   78900      0    2.04e+00    0    1.41e+00
2006 12 29  2200    54098   79200      0    1.96e+00    0    1.36e+00
2006 12 29  2205    54098   79500      0    1.85e+00    0    1.30e+00
2006 12 29  2210    54098   79800      0    1.76e+00    0    1.23e+00
2006 12 29  2215    54098   80100      0    2.12e+00    0    1.48e+00
2006 12 29  2220    54098   80400      0    2.22e+00    0    1.56e+00
2006 12 29  2225    54098   80700      0    2.17e+00    0    1.51e+00
2006 12 29  2230    54098   81000      0    2.08e+00    0    1.46e+00
2006 12 29  2235    54098   81300      0    1.93e+00    0    1.37e+00
2006 12 29  2240    54098   81600      0    1.78e+00    0    1.24e+00
2006 12 29  2245    54098   81900      0    1.78e+00    0    1.24e+00
2006 12 29  2250    54098   82200      0    2.24e+00    0    1.57e+00
2006 12 29  2255    54098   82500      0    2.19e+00    0    1.55e+00
2006 12 29  2300    54098   82800      0    2.17e+00    0    1.53e+00
2006 12 29  2305    54098   83100      0    2.05e+00    0    1.44e+00
2006 12 29  2310    54098   83400      0    1.98e+00    0    1.39e+00
2006 12 29  2315    54098   83700      0    1.81e+00    0    1.26e+00
2006 12 29  2320    54098   84000      0    1.87e+00    0    1.31e+00
2006 12 29  2325    54098   84300      0    2.25e+00    0    1.59e+00
2006 12 29  2330    54098   84600      0    2.17e+00    0    1.52e+00
2006 12 29  2335    54098   84900      0    2.17e+00    0    1.54e+00
2006 12 29  2340    54098   85200      0    2.07e+00    0    1.45e+00
2006 12 29  2345    54098   85500      0    1.99e+00    0    1.41e+00
2006 12 29  2350    54098   85800      0    1.79e+00    0    1.24e+00
2006 12 29  2355    54098   86100      0    1.88e+00    0    1.33e+00
