:Data_list: 20060515_ace_sis_5m.txt
:Created: 2006 May 16 0011 UT
# Prepared by the U.S. Dept. of Commerce, NOAA, Space Environment Center.
# Please send comments and suggestions to SEC.Webmaster@noaa.gov 
# 
# Units: proton flux p/cs2-sec-ster
# Status(S): 0 = nominal data, 1 to 8 = bad data record, 9 = no data
# Missing data values: -1.00e+05
# Source: ACE Satellite - Solar Isotope Spectrometer
#
# 5-minute averaged Real-time Integral Flux of High-energy Solar Protons
# 
#                 Modified Seconds
# UT Date   Time   Julian  of the      ---- Integral Proton Flux ----
# YR MO DA  HHMM     Day     Day       S    > 10 MeV    S    > 30 MeV
#--------------------------------------------------------------------
2006 05 15  0000    53870       0      0    1.57e+00    0    1.11e+00
2006 05 15  0005    53870     300      0    1.59e+00    0    1.12e+00
2006 05 15  0010    53870     600      0    1.60e+00    0    1.12e+00
2006 05 15  0015    53870     900      0    1.59e+00    0    1.12e+00
2006 05 15  0020    53870    1200      0    1.58e+00    0    1.11e+00
2006 05 15  0025    53870    1500      0    1.57e+00    0    1.11e+00
2006 05 15  0030    53870    1800      0    1.58e+00    0    1.11e+00
2006 05 15  0035    53870    2100      0    1.57e+00    0    1.10e+00
2006 05 15  0040    53870    2400      0    1.62e+00    0    1.14e+00
2006 05 15  0045    53870    2700      0    1.61e+00    0    1.14e+00
2006 05 15  0050    53870    3000      0    1.59e+00    0    1.12e+00
2006 05 15  0055    53870    3300      0    1.56e+00    0    1.11e+00
2006 05 15  0100    53870    3600      0    1.61e+00    0    1.12e+00
2006 05 15  0105    53870    3900      0    1.54e+00    0    1.07e+00
2006 05 15  0110    53870    4200      0    1.63e+00    0    1.14e+00
2006 05 15  0115    53870    4500      0    1.59e+00    0    1.11e+00
2006 05 15  0120    53870    4800      0    1.60e+00    0    1.12e+00
2006 05 15  0125    53870    5100      0    1.63e+00    0    1.16e+00
2006 05 15  0130    53870    5400      0    1.61e+00    0    1.14e+00
2006 05 15  0135    53870    5700      0    1.59e+00    0    1.12e+00
2006 05 15  0140    53870    6000      0    1.59e+00    0    1.11e+00
2006 05 15  0145    53870    6300      0    1.60e+00    0    1.12e+00
2006 05 15  0150    53870    6600      0    1.58e+00    0    1.11e+00
2006 05 15  0155    53870    6900      0    1.58e+00    0    1.10e+00
2006 05 15  0200    53870    7200      0    1.61e+00    0    1.12e+00
2006 05 15  0205    53870    7500      0    1.59e+00    0    1.10e+00
2006 05 15  0210    53870    7800      0    1.61e+00    0    1.14e+00
2006 05 15  0215    53870    8100      0    1.62e+00    0    1.14e+00
2006 05 15  0220    53870    8400      0    1.58e+00    0    1.11e+00
2006 05 15  0225    53870    8700      0    1.61e+00    0    1.13e+00
2006 05 15  0230    53870    9000      0    1.58e+00    0    1.10e+00
2006 05 15  0235    53870    9300      0    1.58e+00    0    1.12e+00
2006 05 15  0240    53870    9600      0    1.56e+00    0    1.08e+00
2006 05 15  0245    53870    9900      0    1.60e+00    0    1.12e+00
2006 05 15  0250    53870   10200      0    1.64e+00    0    1.16e+00
2006 05 15  0255    53870   10500      0    1.59e+00    0    1.12e+00
2006 05 15  0300    53870   10800      0    1.58e+00    0    1.10e+00
2006 05 15  0305    53870   11100      0    1.58e+00    0    1.12e+00
2006 05 15  0310    53870   11400      0    1.60e+00    0    1.11e+00
2006 05 15  0315    53870   11700      0    1.62e+00    0    1.12e+00
2006 05 15  0320    53870   12000      0    1.60e+00    0    1.13e+00
2006 05 15  0325    53870   12300      0    1.60e+00    0    1.12e+00
2006 05 15  0330    53870   12600      0    1.61e+00    0    1.13e+00
2006 05 15  0335    53870   12900      0    1.58e+00    0    1.12e+00
2006 05 15  0340    53870   13200      0    1.60e+00    0    1.11e+00
2006 05 15  0345    53870   13500      0    1.59e+00    0    1.11e+00
2006 05 15  0350    53870   13800      0    1.62e+00    0    1.15e+00
2006 05 15  0355    53870   14100      0    1.61e+00    0    1.14e+00
2006 05 15  0400    53870   14400      0    1.58e+00    0    1.10e+00
2006 05 15  0405    53870   14700      0    1.58e+00    0    1.11e+00
2006 05 15  0410    53870   15000      0    1.59e+00    0    1.12e+00
2006 05 15  0415    53870   15300      0    1.62e+00    0    1.13e+00
2006 05 15  0420    53870   15600      0    1.61e+00    0    1.13e+00
2006 05 15  0425    53870   15900      0    1.59e+00    0    1.11e+00
2006 05 15  0430    53870   16200      0    1.59e+00    0    1.13e+00
2006 05 15  0435    53870   16500      0    1.56e+00    0    1.10e+00
2006 05 15  0440    53870   16800      0    1.59e+00    0    1.11e+00
2006 05 15  0445    53870   17100      0    1.62e+00    0    1.14e+00
2006 05 15  0450    53870   17400      0    1.57e+00    0    1.10e+00
2006 05 15  0455    53870   17700      0    1.57e+00    0    1.08e+00
2006 05 15  0500    53870   18000      0    1.60e+00    0    1.11e+00
2006 05 15  0505    53870   18300      0    1.57e+00    0    1.10e+00
2006 05 15  0510    53870   18600      0    1.57e+00    0    1.10e+00
2006 05 15  0515    53870   18900      0    1.58e+00    0    1.11e+00
2006 05 15  0520    53870   19200      0    1.63e+00    0    1.15e+00
2006 05 15  0525    53870   19500      0    1.58e+00    0    1.10e+00
2006 05 15  0530    53870   19800      0    1.54e+00    0    1.06e+00
2006 05 15  0535    53870   20100      0    1.59e+00    0    1.10e+00
2006 05 15  0540    53870   20400      0    1.58e+00    0    1.10e+00
2006 05 15  0545    53870   20700      0    1.55e+00    0    1.09e+00
2006 05 15  0550    53870   21000      0    1.59e+00    0    1.10e+00
2006 05 15  0555    53870   21300      0    1.61e+00    0    1.13e+00
2006 05 15  0600    53870   21600      0    1.60e+00    0    1.12e+00
2006 05 15  0605    53870   21900      0    1.61e+00    0    1.13e+00
2006 05 15  0610    53870   22200      0    1.55e+00    0    1.09e+00
2006 05 15  0615    53870   22500      0    1.58e+00    0    1.09e+00
2006 05 15  0620    53870   22800      0    1.59e+00    0    1.11e+00
2006 05 15  0625    53870   23100      0    1.61e+00    0    1.14e+00
2006 05 15  0630    53870   23400      0    1.61e+00    0    1.13e+00
2006 05 15  0635    53870   23700      0    1.56e+00    0    1.10e+00
2006 05 15  0640    53870   24000      0    1.60e+00    0    1.12e+00
2006 05 15  0645    53870   24300      0    1.61e+00    0    1.13e+00
2006 05 15  0650    53870   24600      0    1.58e+00    0    1.11e+00
2006 05 15  0655    53870   24900      0    1.61e+00    0    1.13e+00
2006 05 15  0700    53870   25200      0    1.60e+00    0    1.13e+00
2006 05 15  0705    53870   25500      0    1.56e+00    0    1.09e+00
2006 05 15  0710    53870   25800      0    1.58e+00    0    1.10e+00
2006 05 15  0715    53870   26100      0    1.57e+00    0    1.10e+00
2006 05 15  0720    53870   26400      0    1.57e+00    0    1.10e+00
2006 05 15  0725    53870   26700      0    1.58e+00    0    1.11e+00
2006 05 15  0730    53870   27000      0    1.58e+00    0    1.10e+00
2006 05 15  0735    53870   27300      0    1.58e+00    0    1.10e+00
2006 05 15  0740    53870   27600      0    1.50e+00    0    1.04e+00
2006 05 15  0745    53870   27900      0    1.55e+00    0    1.08e+00
2006 05 15  0750    53870   28200      0    1.61e+00    0    1.13e+00
2006 05 15  0755    53870   28500      0    1.56e+00    0    1.09e+00
2006 05 15  0800    53870   28800      0    1.56e+00    0    1.09e+00
2006 05 15  0805    53870   29100      0    1.60e+00    0    1.13e+00
2006 05 15  0810    53870   29400      0    1.59e+00    0    1.11e+00
2006 05 15  0815    53870   29700      0    1.57e+00    0    1.13e+00
2006 05 15  0820    53870   30000      0    1.58e+00    0    1.10e+00
2006 05 15  0825    53870   30300      0    1.59e+00    0    1.11e+00
2006 05 15  0830    53870   30600      0    1.62e+00    0    1.14e+00
2006 05 15  0835    53870   30900      0    1.60e+00    0    1.12e+00
2006 05 15  0840    53870   31200      0    1.58e+00    0    1.12e+00
2006 05 15  0845    53870   31500      0    1.57e+00    0    1.10e+00
2006 05 15  0850    53870   31800      0    1.58e+00    0    1.11e+00
2006 05 15  0855    53870   32100      0    1.59e+00    0    1.13e+00
2006 05 15  0900    53870   32400      0    1.57e+00    0    1.10e+00
2006 05 15  0905    53870   32700      0    1.57e+00    0    1.09e+00
2006 05 15  0910    53870   33000      0    1.58e+00    0    1.11e+00
2006 05 15  0915    53870   33300      0    1.60e+00    0    1.13e+00
2006 05 15  0920    53870   33600      0    1.58e+00    0    1.11e+00
2006 05 15  0925    53870   33900      0    1.61e+00    0    1.14e+00
2006 05 15  0930    53870   34200      0    1.59e+00    0    1.13e+00
2006 05 15  0935    53870   34500      0    1.60e+00    0    1.13e+00
2006 05 15  0940    53870   34800      0    1.61e+00    0    1.12e+00
2006 05 15  0945    53870   35100      0    1.60e+00    0    1.10e+00
2006 05 15  0950    53870   35400      0    1.57e+00    0    1.10e+00
2006 05 15  0955    53870   35700      0    1.57e+00    0    1.11e+00
2006 05 15  1000    53870   36000      0    1.60e+00    0    1.11e+00
2006 05 15  1005    53870   36300      0    1.60e+00    0    1.12e+00
2006 05 15  1010    53870   36600      0    1.60e+00    0    1.12e+00
2006 05 15  1015    53870   36900      0    1.60e+00    0    1.11e+00
2006 05 15  1020    53870   37200      0    1.61e+00    0    1.14e+00
2006 05 15  1025    53870   37500      0    1.59e+00    0    1.10e+00
2006 05 15  1030    53870   37800      0    1.59e+00    0    1.10e+00
2006 05 15  1035    53870   38100      0    1.57e+00    0    1.10e+00
2006 05 15  1040    53870   38400      0    1.59e+00    0    1.10e+00
2006 05 15  1045    53870   38700      0    1.59e+00    0    1.12e+00
2006 05 15  1050    53870   39000      0    1.58e+00    0    1.11e+00
2006 05 15  1055    53870   39300      0    1.57e+00    0    1.10e+00
2006 05 15  1100    53870   39600      0    1.60e+00    0    1.13e+00
2006 05 15  1105    53870   39900      0    1.59e+00    0    1.12e+00
2006 05 15  1110    53870   40200      0    1.54e+00    0    1.08e+00
2006 05 15  1115    53870   40500      0    1.58e+00    0    1.10e+00
2006 05 15  1120    53870   40800      0    1.58e+00    0    1.10e+00
2006 05 15  1125    53870   41100      0    1.58e+00    0    1.10e+00
2006 05 15  1130    53870   41400      0    1.61e+00    0    1.12e+00
2006 05 15  1135    53870   41700      0    1.57e+00    0    1.10e+00
2006 05 15  1140    53870   42000      0    1.59e+00    0    1.11e+00
2006 05 15  1145    53870   42300      0    1.58e+00    0    1.11e+00
2006 05 15  1150    53870   42600      0    1.62e+00    0    1.12e+00
2006 05 15  1155    53870   42900      0    1.60e+00    0    1.12e+00
2006 05 15  1200    53870   43200      0    1.63e+00    0    1.15e+00
2006 05 15  1205    53870   43500      0    1.61e+00    0    1.13e+00
2006 05 15  1210    53870   43800      0    1.59e+00    0    1.11e+00
2006 05 15  1215    53870   44100      0    1.59e+00    0    1.11e+00
2006 05 15  1220    53870   44400      0    1.59e+00    0    1.10e+00
2006 05 15  1225    53870   44700      0    1.60e+00    0    1.13e+00
2006 05 15  1230    53870   45000      0    1.59e+00    0    1.12e+00
2006 05 15  1235    53870   45300      0    1.60e+00    0    1.11e+00
2006 05 15  1240    53870   45600      0    1.61e+00    0    1.12e+00
2006 05 15  1245    53870   45900      0    1.60e+00    0    1.12e+00
2006 05 15  1250    53870   46200      0    1.58e+00    0    1.11e+00
2006 05 15  1255    53870   46500      0    1.57e+00    0    1.10e+00
2006 05 15  1300    53870   46800      0    1.60e+00    0    1.12e+00
2006 05 15  1305    53870   47100      0    1.60e+00    0    1.11e+00
2006 05 15  1310    53870   47400      0    1.58e+00    0    1.10e+00
2006 05 15  1315    53870   47700      0    1.55e+00    0    1.08e+00
2006 05 15  1320    53870   48000      0    1.61e+00    0    1.12e+00
2006 05 15  1325    53870   48300      0    1.59e+00    0    1.11e+00
2006 05 15  1330    53870   48600      0    1.62e+00    0    1.14e+00
2006 05 15  1335    53870   48900      0    1.57e+00    0    1.11e+00
2006 05 15  1340    53870   49200      0    1.61e+00    0    1.13e+00
2006 05 15  1345    53870   49500      0    1.59e+00    0    1.11e+00
2006 05 15  1350    53870   49800      0    1.57e+00    0    1.10e+00
2006 05 15  1355    53870   50100      0    1.57e+00    0    1.11e+00
2006 05 15  1400    53870   50400      0    1.60e+00    0    1.11e+00
2006 05 15  1405    53870   50700      0    1.58e+00    0    1.10e+00
2006 05 15  1410    53870   51000      0    1.58e+00    0    1.12e+00
2006 05 15  1415    53870   51300      0    1.60e+00    0    1.13e+00
2006 05 15  1420    53870   51600      0    1.58e+00    0    1.11e+00
2006 05 15  1425    53870   51900      0    1.59e+00    0    1.11e+00
2006 05 15  1430    53870   52200      0    1.55e+00    0    1.09e+00
2006 05 15  1435    53870   52500      0    1.55e+00    0    1.08e+00
2006 05 15  1440    53870   52800      0    1.56e+00    0    1.10e+00
2006 05 15  1445    53870   53100      0    1.60e+00    0    1.12e+00
2006 05 15  1450    53870   53400      0    1.57e+00    0    1.09e+00
2006 05 15  1455    53870   53700      0    1.56e+00    0    1.09e+00
2006 05 15  1500    53870   54000      0    1.60e+00    0    1.14e+00
2006 05 15  1505    53870   54300      0    1.56e+00    0    1.09e+00
2006 05 15  1510    53870   54600      0    1.54e+00    0    1.09e+00
2006 05 15  1515    53870   54900      0    1.59e+00    0    1.11e+00
2006 05 15  1520    53870   55200      0    1.61e+00    0    1.13e+00
2006 05 15  1525    53870   55500      0    1.62e+00    0    1.14e+00
2006 05 15  1530    53870   55800      0    1.57e+00    0    1.10e+00
2006 05 15  1535    53870   56100      0    1.57e+00    0    1.10e+00
2006 05 15  1540    53870   56400      0    1.60e+00    0    1.13e+00
2006 05 15  1545    53870   56700      0    1.61e+00    0    1.14e+00
2006 05 15  1550    53870   57000      0    1.59e+00    0    1.11e+00
2006 05 15  1555    53870   57300      0    1.61e+00    0    1.11e+00
2006 05 15  1600    53870   57600      0    1.61e+00    0    1.12e+00
2006 05 15  1605    53870   57900      0    1.56e+00    0    1.09e+00
2006 05 15  1610    53870   58200      0    1.61e+00    0    1.13e+00
2006 05 15  1615    53870   58500      0    1.61e+00    0    1.14e+00
2006 05 15  1620    53870   58800      0    1.58e+00    0    1.10e+00
2006 05 15  1625    53870   59100      0    1.57e+00    0    1.10e+00
2006 05 15  1630    53870   59400      0    1.58e+00    0    1.10e+00
2006 05 15  1635    53870   59700      0    1.60e+00    0    1.12e+00
2006 05 15  1640    53870   60000      0    1.57e+00    0    1.11e+00
2006 05 15  1645    53870   60300      0    1.60e+00    0    1.12e+00
2006 05 15  1650    53870   60600      0    1.61e+00    0    1.13e+00
2006 05 15  1655    53870   60900      0    1.62e+00    0    1.14e+00
2006 05 15  1700    53870   61200      0    1.57e+00    0    1.10e+00
2006 05 15  1705    53870   61500      0    1.61e+00    0    1.12e+00
2006 05 15  1710    53870   61800      0    1.58e+00    0    1.11e+00
2006 05 15  1715    53870   62100      0    1.61e+00    0    1.12e+00
2006 05 15  1720    53870   62400      0    1.58e+00    0    1.10e+00
2006 05 15  1725    53870   62700      0    1.58e+00    0    1.11e+00
2006 05 15  1730    53870   63000      0    1.60e+00    0    1.13e+00
2006 05 15  1735    53870   63300      0    1.58e+00    0    1.11e+00
2006 05 15  1740    53870   63600      0    1.62e+00    0    1.13e+00
2006 05 15  1745    53870   63900      0    1.60e+00    0    1.12e+00
2006 05 15  1750    53870   64200      0    1.60e+00    0    1.11e+00
2006 05 15  1755    53870   64500      0    1.56e+00    0    1.08e+00
2006 05 15  1800    53870   64800      0    1.59e+00    0    1.11e+00
2006 05 15  1805    53870   65100      0    1.59e+00    0    1.12e+00
2006 05 15  1810    53870   65400      0    1.66e+00    0    1.17e+00
2006 05 15  1815    53870   65700      0    1.60e+00    0    1.12e+00
2006 05 15  1820    53870   66000      0    1.56e+00    0    1.10e+00
2006 05 15  1825    53870   66300      0    1.57e+00    0    1.10e+00
2006 05 15  1830    53870   66600      0    1.59e+00    0    1.13e+00
2006 05 15  1835    53870   66900      0    1.58e+00    0    1.11e+00
2006 05 15  1840    53870   67200      0    1.62e+00    0    1.15e+00
2006 05 15  1845    53870   67500      0    1.58e+00    0    1.12e+00
2006 05 15  1850    53870   67800      0    1.59e+00    0    1.10e+00
2006 05 15  1855    53870   68100      0    1.59e+00    0    1.11e+00
2006 05 15  1900    53870   68400      0    1.56e+00    0    1.09e+00
2006 05 15  1905    53870   68700      0    1.59e+00    0    1.11e+00
2006 05 15  1910    53870   69000      0    1.59e+00    0    1.12e+00
2006 05 15  1915    53870   69300      0    1.58e+00    0    1.12e+00
2006 05 15  1920    53870   69600      0    1.56e+00    0    1.10e+00
2006 05 15  1925    53870   69900      0    1.57e+00    0    1.09e+00
2006 05 15  1930    53870   70200      0    1.57e+00    0    1.10e+00
2006 05 15  1935    53870   70500      0    1.60e+00    0    1.13e+00
2006 05 15  1940    53870   70800      0    1.58e+00    0    1.11e+00
2006 05 15  1945    53870   71100      0    1.59e+00    0    1.10e+00
2006 05 15  1950    53870   71400      0    1.61e+00    0    1.12e+00
2006 05 15  1955    53870   71700      0    1.60e+00    0    1.12e+00
2006 05 15  2000    53870   72000      0    1.60e+00    0    1.12e+00
2006 05 15  2005    53870   72300      0    1.60e+00    0    1.12e+00
2006 05 15  2010    53870   72600      0    1.62e+00    0    1.14e+00
2006 05 15  2015    53870   72900      0    1.58e+00    0    1.12e+00
2006 05 15  2020    53870   73200      0    1.60e+00    0    1.12e+00
2006 05 15  2025    53870   73500      0    1.59e+00    0    1.11e+00
2006 05 15  2030    53870   73800      0    1.59e+00    0    1.10e+00
2006 05 15  2035    53870   74100      0    1.63e+00    0    1.15e+00
2006 05 15  2040    53870   74400      0    1.61e+00    0    1.12e+00
2006 05 15  2045    53870   74700      0    1.60e+00    0    1.11e+00
2006 05 15  2050    53870   75000      0    1.58e+00    0    1.11e+00
2006 05 15  2055    53870   75300      0    1.60e+00    0    1.12e+00
2006 05 15  2100    53870   75600      0    1.56e+00    0    1.09e+00
2006 05 15  2105    53870   75900      0    1.58e+00    0    1.11e+00
2006 05 15  2110    53870   76200      0    1.60e+00    0    1.12e+00
2006 05 15  2115    53870   76500      0    1.58e+00    0    1.11e+00
2006 05 15  2120    53870   76800      0    1.57e+00    0    1.10e+00
2006 05 15  2125    53870   77100      0    1.57e+00    0    1.11e+00
2006 05 15  2130    53870   77400      0    1.59e+00    0    1.11e+00
2006 05 15  2135    53870   77700      0    1.60e+00    0    1.12e+00
2006 05 15  2140    53870   78000      0    1.54e+00    0    1.09e+00
2006 05 15  2145    53870   78300      0    1.58e+00    0    1.11e+00
2006 05 15  2150    53870   78600      0    1.57e+00    0    1.10e+00
2006 05 15  2155    53870   78900      0    1.57e+00    0    1.10e+00
2006 05 15  2200    53870   79200      0    1.58e+00    0    1.10e+00
2006 05 15  2205    53870   79500      0    1.62e+00    0    1.14e+00
2006 05 15  2210    53870   79800      0    1.62e+00    0    1.13e+00
2006 05 15  2215    53870   80100      0    1.60e+00    0    1.13e+00
2006 05 15  2220    53870   80400      0    1.62e+00    0    1.13e+00
2006 05 15  2225    53870   80700      0    1.59e+00    0    1.11e+00
2006 05 15  2230    53870   81000      0    1.59e+00    0    1.12e+00
2006 05 15  2235    53870   81300      0    1.61e+00    0    1.12e+00
2006 05 15  2240    53870   81600      0    1.62e+00    0    1.13e+00
2006 05 15  2245    53870   81900      0    1.55e+00    0    1.09e+00
2006 05 15  2250    53870   82200      0    1.56e+00    0    1.09e+00
2006 05 15  2255    53870   82500      0    1.54e+00    0    1.07e+00
2006 05 15  2300    53870   82800      0    1.57e+00    0    1.10e+00
2006 05 15  2305    53870   83100      0    1.57e+00    0    1.09e+00
2006 05 15  2310    53870   83400      0    1.63e+00    0    1.15e+00
2006 05 15  2315    53870   83700      0    1.59e+00    0    1.11e+00
2006 05 15  2320    53870   84000      0    1.58e+00    0    1.11e+00
2006 05 15  2325    53870   84300      0    1.61e+00    0    1.14e+00
2006 05 15  2330    53870   84600      0    1.58e+00    0    1.11e+00
2006 05 15  2335    53870   84900      0    1.57e+00    0    1.10e+00
2006 05 15  2340    53870   85200      0    1.61e+00    0    1.13e+00
2006 05 15  2345    53870   85500      0    1.58e+00    0    1.11e+00
2006 05 15  2350    53870   85800      0    1.58e+00    0    1.11e+00
2006 05 15  2355    53870   86100      0    1.60e+00    0    1.12e+00
