:Data_list: 20060524_ace_sis_5m.txt
:Created: 2006 May 25 0011 UT
# Prepared by the U.S. Dept. of Commerce, NOAA, Space Environment Center.
# Please send comments and suggestions to SEC.Webmaster@noaa.gov 
# 
# Units: proton flux p/cs2-sec-ster
# Status(S): 0 = nominal data, 1 to 8 = bad data record, 9 = no data
# Missing data values: -1.00e+05
# Source: ACE Satellite - Solar Isotope Spectrometer
#
# 5-minute averaged Real-time Integral Flux of High-energy Solar Protons
# 
#                 Modified Seconds
# UT Date   Time   Julian  of the      ---- Integral Proton Flux ----
# YR MO DA  HHMM     Day     Day       S    > 10 MeV    S    > 30 MeV
#--------------------------------------------------------------------
2006 05 24  0000    53879       0      0    1.59e+00    0    1.12e+00
2006 05 24  0005    53879     300      0    1.60e+00    0    1.12e+00
2006 05 24  0010    53879     600      0    1.60e+00    0    1.12e+00
2006 05 24  0015    53879     900      0    1.62e+00    0    1.13e+00
2006 05 24  0020    53879    1200      0    1.64e+00    0    1.15e+00
2006 05 24  0025    53879    1500      0    1.60e+00    0    1.12e+00
2006 05 24  0030    53879    1800      0    1.65e+00    0    1.15e+00
2006 05 24  0035    53879    2100      0    1.62e+00    0    1.14e+00
2006 05 24  0040    53879    2400      0    1.61e+00    0    1.13e+00
2006 05 24  0045    53879    2700      0    1.63e+00    0    1.13e+00
2006 05 24  0050    53879    3000      0    1.62e+00    0    1.14e+00
2006 05 24  0055    53879    3300      0    1.60e+00    0    1.12e+00
2006 05 24  0100    53879    3600      0    1.62e+00    0    1.13e+00
2006 05 24  0105    53879    3900      0    1.61e+00    0    1.13e+00
2006 05 24  0110    53879    4200      0    1.67e+00    0    1.16e+00
2006 05 24  0115    53879    4500      0    1.59e+00    0    1.10e+00
2006 05 24  0120    53879    4800      0    1.60e+00    0    1.12e+00
2006 05 24  0125    53879    5100      0    1.59e+00    0    1.11e+00
2006 05 24  0130    53879    5400      0    1.60e+00    0    1.13e+00
2006 05 24  0135    53879    5700      0    1.62e+00    0    1.13e+00
2006 05 24  0140    53879    6000      0    1.60e+00    0    1.12e+00
2006 05 24  0145    53879    6300      0    1.58e+00    0    1.11e+00
2006 05 24  0150    53879    6600      0    1.56e+00    0    1.10e+00
2006 05 24  0155    53879    6900      0    1.64e+00    0    1.14e+00
2006 05 24  0200    53879    7200      0    1.57e+00    0    1.09e+00
2006 05 24  0205    53879    7500      0    1.61e+00    0    1.13e+00
2006 05 24  0210    53879    7800      0    1.62e+00    0    1.13e+00
2006 05 24  0215    53879    8100      0    1.61e+00    0    1.13e+00
2006 05 24  0220    53879    8400      0    1.60e+00    0    1.13e+00
2006 05 24  0225    53879    8700      0    1.61e+00    0    1.13e+00
2006 05 24  0230    53879    9000      0    1.57e+00    0    1.10e+00
2006 05 24  0235    53879    9300      0    1.66e+00    0    1.17e+00
2006 05 24  0240    53879    9600      0    1.61e+00    0    1.12e+00
2006 05 24  0245    53879    9900      0    1.55e+00    0    1.09e+00
2006 05 24  0250    53879   10200      0    1.71e+00    0    1.12e+00
2006 05 24  0255    53879   10500      0    1.61e+00    0    1.13e+00
2006 05 24  0300    53879   10800      0    1.61e+00    0    1.12e+00
2006 05 24  0305    53879   11100      0    1.56e+00    0    1.09e+00
2006 05 24  0310    53879   11400      0    1.58e+00    0    1.10e+00
2006 05 24  0315    53879   11700      0    1.62e+00    0    1.13e+00
2006 05 24  0320    53879   12000      0    1.58e+00    0    1.11e+00
2006 05 24  0325    53879   12300      0    1.59e+00    0    1.11e+00
2006 05 24  0330    53879   12600      0    1.62e+00    0    1.14e+00
2006 05 24  0335    53879   12900      0    1.61e+00    0    1.14e+00
2006 05 24  0340    53879   13200      0    1.61e+00    0    1.13e+00
2006 05 24  0345    53879   13500      0    1.66e+00    0    1.17e+00
2006 05 24  0350    53879   13800      0    1.60e+00    0    1.12e+00
2006 05 24  0355    53879   14100      0    1.62e+00    0    1.13e+00
2006 05 24  0400    53879   14400      0    1.62e+00    0    1.15e+00
2006 05 24  0405    53879   14700      0    1.60e+00    0    1.12e+00
2006 05 24  0410    53879   15000      0    1.61e+00    0    1.13e+00
2006 05 24  0415    53879   15300      0    1.65e+00    0    1.15e+00
2006 05 24  0420    53879   15600      0    1.62e+00    0    1.12e+00
2006 05 24  0425    53879   15900      0    1.67e+00    0    1.18e+00
2006 05 24  0430    53879   16200      0    1.64e+00    0    1.14e+00
2006 05 24  0435    53879   16500      0    1.62e+00    0    1.13e+00
2006 05 24  0440    53879   16800      0    1.64e+00    0    1.16e+00
2006 05 24  0445    53879   17100      0    1.59e+00    0    1.12e+00
2006 05 24  0450    53879   17400      0    1.63e+00    0    1.14e+00
2006 05 24  0455    53879   17700      0    1.62e+00    0    1.13e+00
2006 05 24  0500    53879   18000      0    1.62e+00    0    1.14e+00
2006 05 24  0505    53879   18300      0    1.62e+00    0    1.14e+00
2006 05 24  0510    53879   18600      0    1.61e+00    0    1.13e+00
2006 05 24  0515    53879   18900      0    1.64e+00    0    1.14e+00
2006 05 24  0520    53879   19200      0    1.63e+00    0    1.16e+00
2006 05 24  0525    53879   19500      0    1.62e+00    0    1.14e+00
2006 05 24  0530    53879   19800      0    1.63e+00    0    1.16e+00
2006 05 24  0535    53879   20100      0    1.63e+00    0    1.14e+00
2006 05 24  0540    53879   20400      0    1.61e+00    0    1.13e+00
2006 05 24  0545    53879   20700      0    1.62e+00    0    1.14e+00
2006 05 24  0550    53879   21000      0    1.63e+00    0    1.14e+00
2006 05 24  0555    53879   21300      0    1.61e+00    0    1.12e+00
2006 05 24  0600    53879   21600      0    1.60e+00    0    1.12e+00
2006 05 24  0605    53879   21900      0    1.63e+00    0    1.13e+00
2006 05 24  0610    53879   22200      0    1.56e+00    0    1.09e+00
2006 05 24  0615    53879   22500      0    1.62e+00    0    1.14e+00
2006 05 24  0620    53879   22800      0    1.63e+00    0    1.14e+00
2006 05 24  0625    53879   23100      0    1.62e+00    0    1.13e+00
2006 05 24  0630    53879   23400      0    1.63e+00    0    1.13e+00
2006 05 24  0635    53879   23700      0    1.59e+00    0    1.11e+00
2006 05 24  0640    53879   24000      0    1.57e+00    0    1.10e+00
2006 05 24  0645    53879   24300      0    1.62e+00    0    1.15e+00
2006 05 24  0650    53879   24600      0    1.62e+00    0    1.14e+00
2006 05 24  0655    53879   24900      0    1.59e+00    0    1.13e+00
2006 05 24  0700    53879   25200      0    1.59e+00    0    1.11e+00
2006 05 24  0705    53879   25500      0    1.67e+00    0    1.18e+00
2006 05 24  0710    53879   25800      0    1.64e+00    0    1.15e+00
2006 05 24  0715    53879   26100      0    1.60e+00    0    1.13e+00
2006 05 24  0720    53879   26400      0    1.59e+00    0    1.12e+00
2006 05 24  0725    53879   26700      0    1.55e+00    0    1.09e+00
2006 05 24  0730    53879   27000      0    1.63e+00    0    1.15e+00
2006 05 24  0735    53879   27300      0    1.60e+00    0    1.12e+00
2006 05 24  0740    53879   27600      0    1.60e+00    0    1.12e+00
2006 05 24  0745    53879   27900      0    1.65e+00    0    1.15e+00
2006 05 24  0750    53879   28200      0    1.65e+00    0    1.16e+00
2006 05 24  0755    53879   28500      0    1.65e+00    0    1.17e+00
2006 05 24  0800    53879   28800      0    1.63e+00    0    1.14e+00
2006 05 24  0805    53879   29100      0    1.59e+00    0    1.11e+00
2006 05 24  0810    53879   29400      0    1.60e+00    0    1.12e+00
2006 05 24  0815    53879   29700      0    1.61e+00    0    1.13e+00
2006 05 24  0820    53879   30000      0    1.62e+00    0    1.13e+00
2006 05 24  0825    53879   30300      0    1.61e+00    0    1.14e+00
2006 05 24  0830    53879   30600      0    1.63e+00    0    1.16e+00
2006 05 24  0835    53879   30900      0    1.62e+00    0    1.12e+00
2006 05 24  0840    53879   31200      0    1.64e+00    0    1.14e+00
2006 05 24  0845    53879   31500      0    1.62e+00    0    1.13e+00
2006 05 24  0850    53879   31800      0    1.62e+00    0    1.14e+00
2006 05 24  0855    53879   32100      0    1.60e+00    0    1.13e+00
2006 05 24  0900    53879   32400      0    1.63e+00    0    1.13e+00
2006 05 24  0905    53879   32700      0    1.61e+00    0    1.14e+00
2006 05 24  0910    53879   33000      0    1.65e+00    0    1.16e+00
2006 05 24  0915    53879   33300      0    1.61e+00    0    1.14e+00
2006 05 24  0920    53879   33600      0    1.61e+00    0    1.12e+00
2006 05 24  0925    53879   33900      0    1.62e+00    0    1.13e+00
2006 05 24  0930    53879   34200      0    1.62e+00    0    1.14e+00
2006 05 24  0935    53879   34500      0    1.64e+00    0    1.15e+00
2006 05 24  0940    53879   34800      0    1.64e+00    0    1.16e+00
2006 05 24  0945    53879   35100      0    1.63e+00    0    1.14e+00
2006 05 24  0950    53879   35400      0    1.63e+00    0    1.14e+00
2006 05 24  0955    53879   35700      0    1.60e+00    0    1.14e+00
2006 05 24  1000    53879   36000      0    1.64e+00    0    1.15e+00
2006 05 24  1005    53879   36300      0    1.62e+00    0    1.13e+00
2006 05 24  1010    53879   36600      0    1.63e+00    0    1.16e+00
2006 05 24  1015    53879   36900      0    1.61e+00    0    1.12e+00
2006 05 24  1020    53879   37200      0    1.60e+00    0    1.12e+00
2006 05 24  1025    53879   37500      0    1.65e+00    0    1.15e+00
2006 05 24  1030    53879   37800      0    1.61e+00    0    1.12e+00
2006 05 24  1035    53879   38100      0    1.62e+00    0    1.14e+00
2006 05 24  1040    53879   38400      0    1.61e+00    0    1.12e+00
2006 05 24  1045    53879   38700      0    1.62e+00    0    1.14e+00
2006 05 24  1050    53879   39000      0    1.58e+00    0    1.10e+00
2006 05 24  1055    53879   39300      0    1.63e+00    0    1.15e+00
2006 05 24  1100    53879   39600      0    1.63e+00    0    1.15e+00
2006 05 24  1105    53879   39900      0    1.60e+00    0    1.13e+00
2006 05 24  1110    53879   40200      0    1.60e+00    0    1.11e+00
2006 05 24  1115    53879   40500      0    1.64e+00    0    1.15e+00
2006 05 24  1120    53879   40800      0    1.61e+00    0    1.13e+00
2006 05 24  1125    53879   41100      0    1.63e+00    0    1.14e+00
2006 05 24  1130    53879   41400      0    1.61e+00    0    1.12e+00
2006 05 24  1135    53879   41700      0    1.62e+00    0    1.15e+00
2006 05 24  1140    53879   42000      0    1.60e+00    0    1.12e+00
2006 05 24  1145    53879   42300      0    1.65e+00    0    1.16e+00
2006 05 24  1150    53879   42600      0    1.67e+00    0    1.17e+00
2006 05 24  1155    53879   42900      0    1.63e+00    0    1.15e+00
2006 05 24  1200    53879   43200      0    1.60e+00    0    1.12e+00
2006 05 24  1205    53879   43500      0    1.62e+00    0    1.14e+00
2006 05 24  1210    53879   43800      0    1.62e+00    0    1.15e+00
2006 05 24  1215    53879   44100      0    1.60e+00    0    1.12e+00
2006 05 24  1220    53879   44400      0    1.61e+00    0    1.13e+00
2006 05 24  1225    53879   44700      0    1.64e+00    0    1.15e+00
2006 05 24  1230    53879   45000      0    1.64e+00    0    1.15e+00
2006 05 24  1235    53879   45300      0    1.61e+00    0    1.13e+00
2006 05 24  1240    53879   45600      0    1.63e+00    0    1.15e+00
2006 05 24  1245    53879   45900      0    1.61e+00    0    1.14e+00
2006 05 24  1250    53879   46200      0    1.64e+00    0    1.15e+00
2006 05 24  1255    53879   46500      0    1.58e+00    0    1.11e+00
2006 05 24  1300    53879   46800      0    1.61e+00    0    1.13e+00
2006 05 24  1305    53879   47100      0    1.63e+00    0    1.14e+00
2006 05 24  1310    53879   47400      0    1.63e+00    0    1.14e+00
2006 05 24  1315    53879   47700      0    1.61e+00    0    1.13e+00
2006 05 24  1320    53879   48000      0    1.63e+00    0    1.13e+00
2006 05 24  1325    53879   48300      0    1.61e+00    0    1.13e+00
2006 05 24  1330    53879   48600      0    1.61e+00    0    1.13e+00
2006 05 24  1335    53879   48900      0    1.67e+00    0    1.17e+00
2006 05 24  1340    53879   49200      0    1.62e+00    0    1.13e+00
2006 05 24  1345    53879   49500      0    1.61e+00    0    1.14e+00
2006 05 24  1350    53879   49800      0    1.63e+00    0    1.15e+00
2006 05 24  1355    53879   50100      0    1.61e+00    0    1.12e+00
2006 05 24  1400    53879   50400      0    1.65e+00    0    1.16e+00
2006 05 24  1405    53879   50700      0    1.61e+00    0    1.12e+00
2006 05 24  1410    53879   51000      0    1.62e+00    0    1.14e+00
2006 05 24  1415    53879   51300      0    1.59e+00    0    1.13e+00
2006 05 24  1420    53879   51600      0    1.59e+00    0    1.11e+00
2006 05 24  1425    53879   51900      0    1.61e+00    0    1.14e+00
2006 05 24  1430    53879   52200      0    1.60e+00    0    1.13e+00
2006 05 24  1435    53879   52500      0    1.63e+00    0    1.14e+00
2006 05 24  1440    53879   52800      0    1.59e+00    0    1.12e+00
2006 05 24  1445    53879   53100      0    1.56e+00    0    1.11e+00
2006 05 24  1450    53879   53400      0    1.61e+00    0    1.14e+00
2006 05 24  1455    53879   53700      0    1.59e+00    0    1.11e+00
2006 05 24  1500    53879   54000      0    1.62e+00    0    1.14e+00
2006 05 24  1505    53879   54300      0    1.59e+00    0    1.12e+00
2006 05 24  1510    53879   54600      0    1.60e+00    0    1.11e+00
2006 05 24  1515    53879   54900      0    1.57e+00    0    1.09e+00
2006 05 24  1520    53879   55200      0    1.58e+00    0    1.11e+00
2006 05 24  1525    53879   55500      0    1.62e+00    0    1.13e+00
2006 05 24  1530    53879   55800      0    1.62e+00    0    1.15e+00
2006 05 24  1535    53879   56100      0    1.62e+00    0    1.13e+00
2006 05 24  1540    53879   56400      0    1.64e+00    0    1.16e+00
2006 05 24  1545    53879   56700      0    1.61e+00    0    1.11e+00
2006 05 24  1550    53879   57000      0    1.62e+00    0    1.14e+00
2006 05 24  1555    53879   57300      0    1.65e+00    0    1.16e+00
2006 05 24  1600    53879   57600      0    1.59e+00    0    1.12e+00
2006 05 24  1605    53879   57900      0    1.61e+00    0    1.13e+00
2006 05 24  1610    53879   58200      0    1.57e+00    0    1.09e+00
2006 05 24  1615    53879   58500      0    1.60e+00    0    1.13e+00
2006 05 24  1620    53879   58800      0    1.61e+00    0    1.12e+00
2006 05 24  1625    53879   59100      0    1.61e+00    0    1.14e+00
2006 05 24  1630    53879   59400      0    1.60e+00    0    1.11e+00
2006 05 24  1635    53879   59700      0    1.55e+00    0    1.09e+00
2006 05 24  1640    53879   60000      0    1.60e+00    0    1.12e+00
2006 05 24  1645    53879   60300      0    1.60e+00    0    1.12e+00
2006 05 24  1650    53879   60600      0    1.61e+00    0    1.12e+00
2006 05 24  1655    53879   60900      0    1.58e+00    0    1.10e+00
2006 05 24  1700    53879   61200      0    1.63e+00    0    1.14e+00
2006 05 24  1705    53879   61500      0    1.62e+00    0    1.14e+00
2006 05 24  1710    53879   61800      0    1.50e+00    0    1.05e+00
2006 05 24  1715    53879   62100      0    1.64e+00    0    1.15e+00
2006 05 24  1720    53879   62400      0    1.58e+00    0    1.11e+00
2006 05 24  1725    53879   62700      0    1.58e+00    0    1.11e+00
2006 05 24  1730    53879   63000      0    1.64e+00    0    1.17e+00
2006 05 24  1735    53879   63300      0    1.62e+00    0    1.13e+00
2006 05 24  1740    53879   63600      0    1.59e+00    0    1.11e+00
2006 05 24  1745    53879   63900      0    1.61e+00    0    1.12e+00
2006 05 24  1750    53879   64200      0    1.58e+00    0    1.10e+00
2006 05 24  1755    53879   64500      0    1.68e+00    0    1.17e+00
2006 05 24  1800    53879   64800      0    1.64e+00    0    1.15e+00
2006 05 24  1805    53879   65100      0    1.63e+00    0    1.15e+00
2006 05 24  1810    53879   65400      0    1.62e+00    0    1.14e+00
2006 05 24  1815    53879   65700      0    1.62e+00    0    1.15e+00
2006 05 24  1820    53879   66000      0    1.63e+00    0    1.15e+00
2006 05 24  1825    53879   66300      0    1.62e+00    0    1.14e+00
2006 05 24  1830    53879   66600      0    1.59e+00    0    1.11e+00
2006 05 24  1835    53879   66900      0    1.60e+00    0    1.13e+00
2006 05 24  1840    53879   67200      0    1.60e+00    0    1.13e+00
2006 05 24  1845    53879   67500      0    1.62e+00    0    1.14e+00
2006 05 24  1850    53879   67800      0    1.60e+00    0    1.12e+00
2006 05 24  1855    53879   68100      0    1.60e+00    0    1.13e+00
2006 05 24  1900    53879   68400      0    1.60e+00    0    1.12e+00
2006 05 24  1905    53879   68700      0    1.55e+00    0    1.10e+00
2006 05 24  1910    53879   69000      0    1.63e+00    0    1.14e+00
2006 05 24  1915    53879   69300      0    1.60e+00    0    1.12e+00
2006 05 24  1920    53879   69600      0    1.57e+00    0    1.10e+00
2006 05 24  1925    53879   69900      0    1.62e+00    0    1.14e+00
2006 05 24  1930    53879   70200      0    1.62e+00    0    1.14e+00
2006 05 24  1935    53879   70500      0    1.59e+00    0    1.12e+00
2006 05 24  1940    53879   70800      0    1.62e+00    0    1.13e+00
2006 05 24  1945    53879   71100      0    1.60e+00    0    1.13e+00
2006 05 24  1950    53879   71400      0    1.60e+00    0    1.13e+00
2006 05 24  1955    53879   71700      0    1.60e+00    0    1.11e+00
2006 05 24  2000    53879   72000      0    1.61e+00    0    1.12e+00
2006 05 24  2005    53879   72300      0    1.61e+00    0    1.14e+00
2006 05 24  2010    53879   72600      0    1.64e+00    0    1.14e+00
2006 05 24  2015    53879   72900      0    1.60e+00    0    1.12e+00
2006 05 24  2020    53879   73200      0    1.59e+00    0    1.11e+00
2006 05 24  2025    53879   73500      0    1.61e+00    0    1.12e+00
2006 05 24  2030    53879   73800      0    1.63e+00    0    1.14e+00
2006 05 24  2035    53879   74100      0    1.61e+00    0    1.13e+00
2006 05 24  2040    53879   74400      0    1.59e+00    0    1.12e+00
2006 05 24  2045    53879   74700      0    1.59e+00    0    1.12e+00
2006 05 24  2050    53879   75000      0    1.64e+00    0    1.16e+00
2006 05 24  2055    53879   75300      0    1.62e+00    0    1.13e+00
2006 05 24  2100    53879   75600      0    1.62e+00    0    1.13e+00
2006 05 24  2105    53879   75900      0    1.60e+00    0    1.13e+00
2006 05 24  2110    53879   76200      0    1.58e+00    0    1.10e+00
2006 05 24  2115    53879   76500      0    1.57e+00    0    1.11e+00
2006 05 24  2120    53879   76800      0    1.60e+00    0    1.12e+00
2006 05 24  2125    53879   77100      0    1.59e+00    0    1.12e+00
2006 05 24  2130    53879   77400      0    1.56e+00    0    1.08e+00
2006 05 24  2135    53879   77700      0    1.63e+00    0    1.14e+00
2006 05 24  2140    53879   78000      0    1.64e+00    0    1.15e+00
2006 05 24  2145    53879   78300      0    1.62e+00    0    1.14e+00
2006 05 24  2150    53879   78600      0    1.64e+00    0    1.13e+00
2006 05 24  2155    53879   78900      0    1.61e+00    0    1.12e+00
2006 05 24  2200    53879   79200      0    1.64e+00    0    1.14e+00
2006 05 24  2205    53879   79500      0    1.61e+00    0    1.13e+00
2006 05 24  2210    53879   79800      0    1.61e+00    0    1.13e+00
2006 05 24  2215    53879   80100      0    1.62e+00    0    1.14e+00
2006 05 24  2220    53879   80400      0    1.62e+00    0    1.14e+00
2006 05 24  2225    53879   80700      0    1.63e+00    0    1.14e+00
2006 05 24  2230    53879   81000      0    1.61e+00    0    1.12e+00
2006 05 24  2235    53879   81300      0    1.61e+00    0    1.14e+00
2006 05 24  2240    53879   81600      0    1.63e+00    0    1.14e+00
2006 05 24  2245    53879   81900      0    1.65e+00    0    1.16e+00
2006 05 24  2250    53879   82200      0    1.62e+00    0    1.14e+00
2006 05 24  2255    53879   82500      0    1.64e+00    0    1.15e+00
2006 05 24  2300    53879   82800      0    1.61e+00    0    1.13e+00
2006 05 24  2305    53879   83100      0    1.64e+00    0    1.15e+00
2006 05 24  2310    53879   83400      0    1.61e+00    0    1.12e+00
2006 05 24  2315    53879   83700      0    1.61e+00    0    1.13e+00
2006 05 24  2320    53879   84000      0    1.64e+00    0    1.15e+00
2006 05 24  2325    53879   84300      0    1.63e+00    0    1.13e+00
2006 05 24  2330    53879   84600      0    1.63e+00    0    1.13e+00
2006 05 24  2335    53879   84900      0    1.60e+00    0    1.13e+00
2006 05 24  2340    53879   85200      0    1.63e+00    0    1.14e+00
2006 05 24  2345    53879   85500      0    1.63e+00    0    1.13e+00
2006 05 24  2350    53879   85800      0    1.61e+00    0    1.12e+00
2006 05 24  2355    53879   86100      0    1.61e+00    0    1.12e+00
