:Data_list: 20061006_ace_sis_5m.txt
:Created: 2006 Oct 07 0011 UT
# Prepared by the U.S. Dept. of Commerce, NOAA, Space Environment Center.
# Please send comments and suggestions to SEC.Webmaster@noaa.gov 
# 
# Units: proton flux p/cs2-sec-ster
# Status(S): 0 = nominal data, 1 to 8 = bad data record, 9 = no data
# Missing data values: -1.00e+05
# Source: ACE Satellite - Solar Isotope Spectrometer
#
# 5-minute averaged Real-time Integral Flux of High-energy Solar Protons
# 
#                 Modified Seconds
# UT Date   Time   Julian  of the      ---- Integral Proton Flux ----
# YR MO DA  HHMM     Day     Day       S    > 10 MeV    S    > 30 MeV
#--------------------------------------------------------------------
2006 10 06  0000    54014       0      0    1.70e+00    0    1.18e+00
2006 10 06  0005    54014     300      0    1.68e+00    0    1.18e+00
2006 10 06  0010    54014     600      0    1.72e+00    0    1.20e+00
2006 10 06  0015    54014     900      0    1.66e+00    0    1.16e+00
2006 10 06  0020    54014    1200      0    1.74e+00    0    1.23e+00
2006 10 06  0025    54014    1500      0    1.70e+00    0    1.19e+00
2006 10 06  0030    54014    1800      0    1.68e+00    0    1.18e+00
2006 10 06  0035    54014    2100      0    1.69e+00    0    1.18e+00
2006 10 06  0040    54014    2400      0    1.72e+00    0    1.20e+00
2006 10 06  0045    54014    2700      0    1.73e+00    0    1.22e+00
2006 10 06  0050    54014    3000      0    1.67e+00    0    1.17e+00
2006 10 06  0055    54014    3300      0    1.69e+00    0    1.19e+00
2006 10 06  0100    54014    3600      0    1.66e+00    0    1.17e+00
2006 10 06  0105    54014    3900      0    1.68e+00    0    1.18e+00
2006 10 06  0110    54014    4200      0    1.60e+00    0    1.13e+00
2006 10 06  0115    54014    4500      0    1.71e+00    0    1.20e+00
2006 10 06  0120    54014    4800      0    1.66e+00    0    1.17e+00
2006 10 06  0125    54014    5100      0    1.71e+00    0    1.20e+00
2006 10 06  0130    54014    5400      0    1.68e+00    0    1.17e+00
2006 10 06  0135    54014    5700      0    1.70e+00    0    1.19e+00
2006 10 06  0140    54014    6000      0    1.68e+00    0    1.17e+00
2006 10 06  0145    54014    6300      0    1.64e+00    0    1.14e+00
2006 10 06  0150    54014    6600      0    1.67e+00    0    1.17e+00
2006 10 06  0155    54014    6900      0    1.68e+00    0    1.18e+00
2006 10 06  0200    54014    7200      0    1.67e+00    0    1.17e+00
2006 10 06  0205    54014    7500      0    1.69e+00    0    1.18e+00
2006 10 06  0210    54014    7800      0    1.69e+00    0    1.18e+00
2006 10 06  0215    54014    8100      0    1.71e+00    0    1.19e+00
2006 10 06  0220    54014    8400      0    1.66e+00    0    1.17e+00
2006 10 06  0225    54014    8700      0    1.70e+00    0    1.18e+00
2006 10 06  0230    54014    9000      0    1.69e+00    0    1.18e+00
2006 10 06  0235    54014    9300      0    1.72e+00    0    1.20e+00
2006 10 06  0240    54014    9600      0    1.68e+00    0    1.19e+00
2006 10 06  0245    54014    9900      0    1.68e+00    0    1.17e+00
2006 10 06  0250    54014   10200      0    1.68e+00    0    1.19e+00
2006 10 06  0255    54014   10500      0    1.71e+00    0    1.20e+00
2006 10 06  0300    54014   10800      0    1.72e+00    0    1.21e+00
2006 10 06  0305    54014   11100      0    1.70e+00    0    1.18e+00
2006 10 06  0310    54014   11400      0    1.72e+00    0    1.19e+00
2006 10 06  0315    54014   11700      0    1.70e+00    0    1.19e+00
2006 10 06  0320    54014   12000      0    1.68e+00    0    1.17e+00
2006 10 06  0325    54014   12300      0    1.70e+00    0    1.19e+00
2006 10 06  0330    54014   12600      0    1.70e+00    0    1.20e+00
2006 10 06  0335    54014   12900      0    1.65e+00    0    1.15e+00
2006 10 06  0340    54014   13200      0    1.69e+00    0    1.19e+00
2006 10 06  0345    54014   13500      0    1.79e+00    0    1.27e+00
2006 10 06  0350    54014   13800      9   -1.00e+05    9   -1.00e+05
2006 10 06  0355    54014   14100      9   -1.00e+05    9   -1.00e+05
2006 10 06  0400    54014   14400      9   -1.00e+05    9   -1.00e+05
2006 10 06  0405    54014   14700      9   -1.00e+05    9   -1.00e+05
2006 10 06  0410    54014   15000      9   -1.00e+05    9   -1.00e+05
2006 10 06  0415    54014   15300      9   -1.00e+05    9   -1.00e+05
2006 10 06  0420    54014   15600      9   -1.00e+05    9   -1.00e+05
2006 10 06  0425    54014   15900      0    1.65e+00    0    1.17e+00
2006 10 06  0430    54014   16200      0    1.69e+00    0    1.18e+00
2006 10 06  0435    54014   16500      0    1.71e+00    0    1.21e+00
2006 10 06  0440    54014   16800      0    1.68e+00    0    1.17e+00
2006 10 06  0445    54014   17100      0    1.71e+00    0    1.19e+00
2006 10 06  0450    54014   17400      0    1.70e+00    0    1.18e+00
2006 10 06  0455    54014   17700      0    1.69e+00    0    1.18e+00
2006 10 06  0500    54014   18000      0    1.73e+00    0    1.21e+00
2006 10 06  0505    54014   18300      0    1.71e+00    0    1.19e+00
2006 10 06  0510    54014   18600      0    1.71e+00    0    1.21e+00
2006 10 06  0515    54014   18900      0    1.70e+00    0    1.19e+00
2006 10 06  0520    54014   19200      0    1.73e+00    0    1.21e+00
2006 10 06  0525    54014   19500      0    1.71e+00    0    1.19e+00
2006 10 06  0530    54014   19800      0    1.60e+00    0    1.12e+00
2006 10 06  0535    54014   20100      0    1.75e+00    0    1.22e+00
2006 10 06  0540    54014   20400      0    1.73e+00    0    1.22e+00
2006 10 06  0545    54014   20700      0    1.69e+00    0    1.18e+00
2006 10 06  0550    54014   21000      0    1.71e+00    0    1.19e+00
2006 10 06  0555    54014   21300      0    1.69e+00    0    1.18e+00
2006 10 06  0600    54014   21600      0    1.68e+00    0    1.16e+00
2006 10 06  0605    54014   21900      0    1.71e+00    0    1.19e+00
2006 10 06  0610    54014   22200      0    1.69e+00    0    1.20e+00
2006 10 06  0615    54014   22500      0    1.72e+00    0    1.21e+00
2006 10 06  0620    54014   22800      0    1.69e+00    0    1.18e+00
2006 10 06  0625    54014   23100      0    1.65e+00    0    1.16e+00
2006 10 06  0630    54014   23400      0    1.72e+00    0    1.20e+00
2006 10 06  0635    54014   23700      0    1.72e+00    0    1.20e+00
2006 10 06  0640    54014   24000      0    1.73e+00    0    1.21e+00
2006 10 06  0645    54014   24300      0    1.69e+00    0    1.18e+00
2006 10 06  0650    54014   24600      0    1.72e+00    0    1.20e+00
2006 10 06  0655    54014   24900      0    1.71e+00    0    1.19e+00
2006 10 06  0700    54014   25200      0    1.71e+00    0    1.20e+00
2006 10 06  0705    54014   25500      0    1.72e+00    0    1.20e+00
2006 10 06  0710    54014   25800      0    1.67e+00    0    1.16e+00
2006 10 06  0715    54014   26100      0    1.72e+00    0    1.20e+00
2006 10 06  0720    54014   26400      0    1.69e+00    0    1.19e+00
2006 10 06  0725    54014   26700      0    1.69e+00    0    1.18e+00
2006 10 06  0730    54014   27000      0    1.71e+00    0    1.19e+00
2006 10 06  0735    54014   27300      0    1.70e+00    0    1.20e+00
2006 10 06  0740    54014   27600      0    1.69e+00    0    1.20e+00
2006 10 06  0745    54014   27900      0    1.69e+00    0    1.18e+00
2006 10 06  0750    54014   28200      0    1.72e+00    0    1.20e+00
2006 10 06  0755    54014   28500      0    1.70e+00    0    1.20e+00
2006 10 06  0800    54014   28800      0    1.68e+00    0    1.18e+00
2006 10 06  0805    54014   29100      0    1.68e+00    0    1.18e+00
2006 10 06  0810    54014   29400      0    1.70e+00    0    1.20e+00
2006 10 06  0815    54014   29700      0    1.67e+00    0    1.17e+00
2006 10 06  0820    54014   30000      0    1.74e+00    0    1.22e+00
2006 10 06  0825    54014   30300      0    1.72e+00    0    1.22e+00
2006 10 06  0830    54014   30600      0    1.69e+00    0    1.19e+00
2006 10 06  0835    54014   30900      0    1.68e+00    0    1.17e+00
2006 10 06  0840    54014   31200      0    1.71e+00    0    1.20e+00
2006 10 06  0845    54014   31500      0    1.69e+00    0    1.20e+00
2006 10 06  0850    54014   31800      0    1.72e+00    0    1.20e+00
2006 10 06  0855    54014   32100      0    1.70e+00    0    1.19e+00
2006 10 06  0900    54014   32400      0    1.70e+00    0    1.20e+00
2006 10 06  0905    54014   32700      0    1.74e+00    0    1.21e+00
2006 10 06  0910    54014   33000      0    1.70e+00    0    1.20e+00
2006 10 06  0915    54014   33300      0    1.72e+00    0    1.20e+00
2006 10 06  0920    54014   33600      0    1.72e+00    0    1.21e+00
2006 10 06  0925    54014   33900      0    1.73e+00    0    1.23e+00
2006 10 06  0930    54014   34200      0    1.68e+00    0    1.18e+00
2006 10 06  0935    54014   34500      0    1.69e+00    0    1.19e+00
2006 10 06  0940    54014   34800      0    1.70e+00    0    1.19e+00
2006 10 06  0945    54014   35100      0    1.69e+00    0    1.20e+00
2006 10 06  0950    54014   35400      0    1.68e+00    0    1.18e+00
2006 10 06  0955    54014   35700      0    1.64e+00    0    1.16e+00
2006 10 06  1000    54014   36000      0    1.72e+00    0    1.21e+00
2006 10 06  1005    54014   36300      0    1.71e+00    0    1.19e+00
2006 10 06  1010    54014   36600      0    1.72e+00    0    1.20e+00
2006 10 06  1015    54014   36900      0    1.70e+00    0    1.19e+00
2006 10 06  1020    54014   37200      0    1.72e+00    0    1.21e+00
2006 10 06  1025    54014   37500      0    1.71e+00    0    1.20e+00
2006 10 06  1030    54014   37800      0    1.67e+00    0    1.17e+00
2006 10 06  1035    54014   38100      0    1.68e+00    0    1.16e+00
2006 10 06  1040    54014   38400      0    1.70e+00    0    1.17e+00
2006 10 06  1045    54014   38700      0    1.67e+00    0    1.16e+00
2006 10 06  1050    54014   39000      0    1.63e+00    0    1.14e+00
2006 10 06  1055    54014   39300      0    1.69e+00    0    1.17e+00
2006 10 06  1100    54014   39600      0    1.70e+00    0    1.20e+00
2006 10 06  1105    54014   39900      0    1.68e+00    0    1.18e+00
2006 10 06  1110    54014   40200      0    1.71e+00    0    1.21e+00
2006 10 06  1115    54014   40500      0    1.71e+00    0    1.19e+00
2006 10 06  1120    54014   40800      0    1.71e+00    0    1.18e+00
2006 10 06  1125    54014   41100      0    1.71e+00    0    1.20e+00
2006 10 06  1130    54014   41400      0    1.72e+00    0    1.21e+00
2006 10 06  1135    54014   41700      0    1.70e+00    0    1.19e+00
2006 10 06  1140    54014   42000      0    1.71e+00    0    1.19e+00
2006 10 06  1145    54014   42300      0    1.68e+00    0    1.17e+00
2006 10 06  1150    54014   42600      0    1.69e+00    0    1.19e+00
2006 10 06  1155    54014   42900      0    1.69e+00    0    1.18e+00
2006 10 06  1200    54014   43200      0    1.69e+00    0    1.18e+00
2006 10 06  1205    54014   43500      0    1.71e+00    0    1.20e+00
2006 10 06  1210    54014   43800      0    1.70e+00    0    1.21e+00
2006 10 06  1215    54014   44100      0    1.71e+00    0    1.20e+00
2006 10 06  1220    54014   44400      0    1.73e+00    0    1.22e+00
2006 10 06  1225    54014   44700      0    1.70e+00    0    1.19e+00
2006 10 06  1230    54014   45000      0    1.71e+00    0    1.20e+00
2006 10 06  1235    54014   45300      0    1.71e+00    0    1.18e+00
2006 10 06  1240    54014   45600      0    1.70e+00    0    1.18e+00
2006 10 06  1245    54014   45900      0    1.73e+00    0    1.22e+00
2006 10 06  1250    54014   46200      0    1.71e+00    0    1.20e+00
2006 10 06  1255    54014   46500      0    1.71e+00    0    1.18e+00
2006 10 06  1300    54014   46800      0    1.72e+00    0    1.20e+00
2006 10 06  1305    54014   47100      0    1.67e+00    0    1.16e+00
2006 10 06  1310    54014   47400      0    1.67e+00    0    1.18e+00
2006 10 06  1315    54014   47700      0    1.71e+00    0    1.20e+00
2006 10 06  1320    54014   48000      0    1.70e+00    0    1.19e+00
2006 10 06  1325    54014   48300      0    1.68e+00    0    1.17e+00
2006 10 06  1330    54014   48600      0    1.70e+00    0    1.20e+00
2006 10 06  1335    54014   48900      0    1.70e+00    0    1.21e+00
2006 10 06  1340    54014   49200      0    1.73e+00    0    1.21e+00
2006 10 06  1345    54014   49500      0    1.73e+00    0    1.21e+00
2006 10 06  1350    54014   49800      0    1.71e+00    0    1.17e+00
2006 10 06  1355    54014   50100      0    1.70e+00    0    1.18e+00
2006 10 06  1400    54014   50400      0    1.71e+00    0    1.19e+00
2006 10 06  1405    54014   50700      0    1.70e+00    0    1.18e+00
2006 10 06  1410    54014   51000      0    1.71e+00    0    1.20e+00
2006 10 06  1415    54014   51300      0    1.73e+00    0    1.21e+00
2006 10 06  1420    54014   51600      0    1.70e+00    0    1.20e+00
2006 10 06  1425    54014   51900      0    1.70e+00    0    1.19e+00
2006 10 06  1430    54014   52200      0    1.75e+00    0    1.22e+00
2006 10 06  1435    54014   52500      0    1.71e+00    0    1.21e+00
2006 10 06  1440    54014   52800      0    1.71e+00    0    1.20e+00
2006 10 06  1445    54014   53100      0    1.75e+00    0    1.23e+00
2006 10 06  1450    54014   53400      0    1.69e+00    0    1.19e+00
2006 10 06  1455    54014   53700      0    1.70e+00    0    1.20e+00
2006 10 06  1500    54014   54000      0    1.71e+00    0    1.21e+00
2006 10 06  1505    54014   54300      0    1.72e+00    0    1.20e+00
2006 10 06  1510    54014   54600      0    1.69e+00    0    1.18e+00
2006 10 06  1515    54014   54900      0    1.72e+00    0    1.20e+00
2006 10 06  1520    54014   55200      0    1.68e+00    0    1.17e+00
2006 10 06  1525    54014   55500      0    1.68e+00    0    1.18e+00
2006 10 06  1530    54014   55800      0    1.68e+00    0    1.17e+00
2006 10 06  1535    54014   56100      0    1.68e+00    0    1.17e+00
2006 10 06  1540    54014   56400      0    1.71e+00    0    1.19e+00
2006 10 06  1545    54014   56700      0    1.70e+00    0    1.18e+00
2006 10 06  1550    54014   57000      0    1.70e+00    0    1.19e+00
2006 10 06  1555    54014   57300      0    1.70e+00    0    1.20e+00
2006 10 06  1600    54014   57600      0    1.71e+00    0    1.20e+00
2006 10 06  1605    54014   57900      0    1.68e+00    0    1.17e+00
2006 10 06  1610    54014   58200      0    1.66e+00    0    1.16e+00
2006 10 06  1615    54014   58500      0    1.67e+00    0    1.17e+00
2006 10 06  1620    54014   58800      0    1.69e+00    0    1.18e+00
2006 10 06  1625    54014   59100      0    1.72e+00    0    1.21e+00
2006 10 06  1630    54014   59400      0    1.68e+00    0    1.18e+00
2006 10 06  1635    54014   59700      0    1.69e+00    0    1.19e+00
2006 10 06  1640    54014   60000      0    1.67e+00    0    1.18e+00
2006 10 06  1645    54014   60300      0    1.74e+00    0    1.23e+00
2006 10 06  1650    54014   60600      0    1.68e+00    0    1.18e+00
2006 10 06  1655    54014   60900      0    1.68e+00    0    1.18e+00
2006 10 06  1700    54014   61200      0    1.71e+00    0    1.21e+00
2006 10 06  1705    54014   61500      0    1.70e+00    0    1.19e+00
2006 10 06  1710    54014   61800      0    1.68e+00    0    1.18e+00
2006 10 06  1715    54014   62100      0    1.70e+00    0    1.20e+00
2006 10 06  1720    54014   62400      0    1.69e+00    0    1.18e+00
2006 10 06  1725    54014   62700      0    1.72e+00    0    1.21e+00
2006 10 06  1730    54014   63000      0    1.69e+00    0    1.18e+00
2006 10 06  1735    54014   63300      0    1.66e+00    0    1.15e+00
2006 10 06  1740    54014   63600      0    1.69e+00    0    1.19e+00
2006 10 06  1745    54014   63900      0    1.69e+00    0    1.19e+00
2006 10 06  1750    54014   64200      0    1.71e+00    0    1.20e+00
2006 10 06  1755    54014   64500      0    1.75e+00    0    1.24e+00
2006 10 06  1800    54014   64800      0    1.68e+00    0    1.18e+00
2006 10 06  1805    54014   65100      0    1.66e+00    0    1.15e+00
2006 10 06  1810    54014   65400      0    1.66e+00    0    1.15e+00
2006 10 06  1815    54014   65700      0    1.70e+00    0    1.18e+00
2006 10 06  1820    54014   66000      0    1.70e+00    0    1.18e+00
2006 10 06  1825    54014   66300      0    1.69e+00    0    1.18e+00
2006 10 06  1830    54014   66600      0    1.71e+00    0    1.19e+00
2006 10 06  1835    54014   66900      0    1.70e+00    0    1.19e+00
2006 10 06  1840    54014   67200      0    1.68e+00    0    1.18e+00
2006 10 06  1845    54014   67500      0    1.71e+00    0    1.20e+00
2006 10 06  1850    54014   67800      0    1.69e+00    0    1.18e+00
2006 10 06  1855    54014   68100      0    1.71e+00    0    1.20e+00
2006 10 06  1900    54014   68400      0    1.72e+00    0    1.22e+00
2006 10 06  1905    54014   68700      0    1.68e+00    0    1.19e+00
2006 10 06  1910    54014   69000      0    1.69e+00    0    1.18e+00
2006 10 06  1915    54014   69300      0    1.70e+00    0    1.19e+00
2006 10 06  1920    54014   69600      0    1.66e+00    0    1.16e+00
2006 10 06  1925    54014   69900      0    1.66e+00    0    1.16e+00
2006 10 06  1930    54014   70200      0    1.68e+00    0    1.18e+00
2006 10 06  1935    54014   70500      0    1.72e+00    0    1.19e+00
2006 10 06  1940    54014   70800      0    1.69e+00    0    1.19e+00
2006 10 06  1945    54014   71100      0    1.72e+00    0    1.21e+00
2006 10 06  1950    54014   71400      0    1.67e+00    0    1.17e+00
2006 10 06  1955    54014   71700      0    1.70e+00    0    1.18e+00
2006 10 06  2000    54014   72000      0    1.68e+00    0    1.18e+00
2006 10 06  2005    54014   72300      0    1.70e+00    0    1.20e+00
2006 10 06  2010    54014   72600      0    1.69e+00    0    1.19e+00
2006 10 06  2015    54014   72900      0    1.72e+00    0    1.21e+00
2006 10 06  2020    54014   73200      0    1.70e+00    0    1.19e+00
2006 10 06  2025    54014   73500      0    1.71e+00    0    1.21e+00
2006 10 06  2030    54014   73800      0    1.75e+00    0    1.22e+00
2006 10 06  2035    54014   74100      0    1.71e+00    0    1.20e+00
2006 10 06  2040    54014   74400      0    1.71e+00    0    1.20e+00
2006 10 06  2045    54014   74700      0    1.70e+00    0    1.19e+00
2006 10 06  2050    54014   75000      0    1.72e+00    0    1.19e+00
2006 10 06  2055    54014   75300      0    1.71e+00    0    1.20e+00
2006 10 06  2100    54014   75600      0    1.73e+00    0    1.22e+00
2006 10 06  2105    54014   75900      0    1.71e+00    0    1.20e+00
2006 10 06  2110    54014   76200      0    1.70e+00    0    1.21e+00
2006 10 06  2115    54014   76500      0    1.71e+00    0    1.20e+00
2006 10 06  2120    54014   76800      0    1.71e+00    0    1.20e+00
2006 10 06  2125    54014   77100      0    1.68e+00    0    1.18e+00
2006 10 06  2130    54014   77400      0    1.68e+00    0    1.17e+00
2006 10 06  2135    54014   77700      0    1.69e+00    0    1.18e+00
2006 10 06  2140    54014   78000      0    1.73e+00    0    1.22e+00
2006 10 06  2145    54014   78300      0    1.73e+00    0    1.21e+00
2006 10 06  2150    54014   78600      0    1.71e+00    0    1.20e+00
2006 10 06  2155    54014   78900      0    1.73e+00    0    1.22e+00
2006 10 06  2200    54014   79200      9   -1.00e+05    9   -1.00e+05
2006 10 06  2205    54014   79500      9   -1.00e+05    9   -1.00e+05
2006 10 06  2210    54014   79800      9   -1.00e+05    9   -1.00e+05
2006 10 06  2215    54014   80100      9   -1.00e+05    9   -1.00e+05
2006 10 06  2220    54014   80400      9   -1.00e+05    9   -1.00e+05
2006 10 06  2225    54014   80700      9   -1.00e+05    9   -1.00e+05
2006 10 06  2230    54014   81000      9   -1.00e+05    9   -1.00e+05
2006 10 06  2235    54014   81300      9   -1.00e+05    9   -1.00e+05
2006 10 06  2240    54014   81600      0    1.67e+00    0    1.17e+00
2006 10 06  2245    54014   81900      0    1.67e+00    0    1.16e+00
2006 10 06  2250    54014   82200      0    1.70e+00    0    1.19e+00
2006 10 06  2255    54014   82500      0    1.70e+00    0    1.19e+00
2006 10 06  2300    54014   82800      0    1.69e+00    0    1.20e+00
2006 10 06  2305    54014   83100      0    1.66e+00    0    1.17e+00
2006 10 06  2310    54014   83400      0    1.72e+00    0    1.21e+00
2006 10 06  2315    54014   83700      0    1.69e+00    0    1.17e+00
2006 10 06  2320    54014   84000      0    1.75e+00    0    1.24e+00
2006 10 06  2325    54014   84300      0    1.68e+00    0    1.17e+00
2006 10 06  2330    54014   84600      0    1.73e+00    0    1.22e+00
2006 10 06  2335    54014   84900      0    1.71e+00    0    1.20e+00
2006 10 06  2340    54014   85200      0    1.69e+00    0    1.18e+00
2006 10 06  2345    54014   85500      0    1.70e+00    0    1.20e+00
2006 10 06  2350    54014   85800      0    1.68e+00    0    1.17e+00
2006 10 06  2355    54014   86100      0    1.66e+00    0    1.17e+00
