:Data_list: 20060503_ace_sis_5m.txt
:Created: 2006 May 04 0011 UT
# Prepared by the U.S. Dept. of Commerce, NOAA, Space Environment Center.
# Please send comments and suggestions to SEC.Webmaster@noaa.gov 
# 
# Units: proton flux p/cs2-sec-ster
# Status(S): 0 = nominal data, 1 to 8 = bad data record, 9 = no data
# Missing data values: -1.00e+05
# Source: ACE Satellite - Solar Isotope Spectrometer
#
# 5-minute averaged Real-time Integral Flux of High-energy Solar Protons
# 
#                 Modified Seconds
# UT Date   Time   Julian  of the      ---- Integral Proton Flux ----
# YR MO DA  HHMM     Day     Day       S    > 10 MeV    S    > 30 MeV
#--------------------------------------------------------------------
2006 05 03  0000    53858       0      0    1.64e+00    0    1.16e+00
2006 05 03  0005    53858     300      0    1.64e+00    0    1.13e+00
2006 05 03  0010    53858     600      0    1.64e+00    0    1.14e+00
2006 05 03  0015    53858     900      0    1.65e+00    0    1.16e+00
2006 05 03  0020    53858    1200      0    1.65e+00    0    1.15e+00
2006 05 03  0025    53858    1500      0    1.67e+00    0    1.17e+00
2006 05 03  0030    53858    1800      0    1.61e+00    0    1.12e+00
2006 05 03  0035    53858    2100      0    1.63e+00    0    1.15e+00
2006 05 03  0040    53858    2400      0    1.63e+00    0    1.14e+00
2006 05 03  0045    53858    2700      0    1.64e+00    0    1.15e+00
2006 05 03  0050    53858    3000      0    1.67e+00    0    1.17e+00
2006 05 03  0055    53858    3300      0    1.62e+00    0    1.14e+00
2006 05 03  0100    53858    3600      0    1.64e+00    0    1.13e+00
2006 05 03  0105    53858    3900      0    1.64e+00    0    1.15e+00
2006 05 03  0110    53858    4200      0    1.65e+00    0    1.16e+00
2006 05 03  0115    53858    4500      0    1.63e+00    0    1.15e+00
2006 05 03  0120    53858    4800      0    1.70e+00    0    1.19e+00
2006 05 03  0125    53858    5100      0    1.67e+00    0    1.18e+00
2006 05 03  0130    53858    5400      0    1.64e+00    0    1.13e+00
2006 05 03  0135    53858    5700      0    1.69e+00    0    1.18e+00
2006 05 03  0140    53858    6000      0    1.65e+00    0    1.15e+00
2006 05 03  0145    53858    6300      0    1.66e+00    0    1.17e+00
2006 05 03  0150    53858    6600      0    1.61e+00    0    1.13e+00
2006 05 03  0155    53858    6900      0    1.62e+00    0    1.15e+00
2006 05 03  0200    53858    7200      0    1.65e+00    0    1.15e+00
2006 05 03  0205    53858    7500      0    1.61e+00    0    1.14e+00
2006 05 03  0210    53858    7800      0    1.65e+00    0    1.17e+00
2006 05 03  0215    53858    8100      0    1.69e+00    0    1.19e+00
2006 05 03  0220    53858    8400      0    1.60e+00    0    1.12e+00
2006 05 03  0225    53858    8700      0    1.68e+00    0    1.18e+00
2006 05 03  0230    53858    9000      0    1.64e+00    0    1.14e+00
2006 05 03  0235    53858    9300      0    1.65e+00    0    1.15e+00
2006 05 03  0240    53858    9600      0    1.65e+00    0    1.15e+00
2006 05 03  0245    53858    9900      0    1.63e+00    0    1.14e+00
2006 05 03  0250    53858   10200      0    1.66e+00    0    1.16e+00
2006 05 03  0255    53858   10500      0    1.64e+00    0    1.14e+00
2006 05 03  0300    53858   10800      0    1.63e+00    0    1.15e+00
2006 05 03  0305    53858   11100      0    1.64e+00    0    1.15e+00
2006 05 03  0310    53858   11400      0    1.66e+00    0    1.17e+00
2006 05 03  0315    53858   11700      0    1.67e+00    0    1.17e+00
2006 05 03  0320    53858   12000      0    1.63e+00    0    1.14e+00
2006 05 03  0325    53858   12300      0    1.64e+00    0    1.16e+00
2006 05 03  0330    53858   12600      0    1.64e+00    0    1.16e+00
2006 05 03  0335    53858   12900      0    1.59e+00    0    1.11e+00
2006 05 03  0340    53858   13200      0    1.66e+00    0    1.16e+00
2006 05 03  0345    53858   13500      0    1.61e+00    0    1.13e+00
2006 05 03  0350    53858   13800      0    1.67e+00    0    1.16e+00
2006 05 03  0355    53858   14100      0    1.61e+00    0    1.12e+00
2006 05 03  0400    53858   14400      0    1.61e+00    0    1.14e+00
2006 05 03  0405    53858   14700      0    1.68e+00    0    1.17e+00
2006 05 03  0410    53858   15000      0    1.66e+00    0    1.17e+00
2006 05 03  0415    53858   15300      0    1.69e+00    0    1.19e+00
2006 05 03  0420    53858   15600      0    1.61e+00    0    1.12e+00
2006 05 03  0425    53858   15900      0    1.68e+00    0    1.19e+00
2006 05 03  0430    53858   16200      0    1.65e+00    0    1.15e+00
2006 05 03  0435    53858   16500      0    1.68e+00    0    1.16e+00
2006 05 03  0440    53858   16800      0    1.64e+00    0    1.15e+00
2006 05 03  0445    53858   17100      0    1.64e+00    0    1.15e+00
2006 05 03  0450    53858   17400      0    1.63e+00    0    1.14e+00
2006 05 03  0455    53858   17700      0    1.68e+00    0    1.18e+00
2006 05 03  0500    53858   18000      0    1.62e+00    0    1.14e+00
2006 05 03  0505    53858   18300      0    1.64e+00    0    1.14e+00
2006 05 03  0510    53858   18600      0    1.67e+00    0    1.18e+00
2006 05 03  0515    53858   18900      0    1.67e+00    0    1.16e+00
2006 05 03  0520    53858   19200      0    1.68e+00    0    1.17e+00
2006 05 03  0525    53858   19500      0    1.66e+00    0    1.17e+00
2006 05 03  0530    53858   19800      0    1.65e+00    0    1.16e+00
2006 05 03  0535    53858   20100      0    1.65e+00    0    1.16e+00
2006 05 03  0540    53858   20400      0    1.68e+00    0    1.18e+00
2006 05 03  0545    53858   20700      0    1.68e+00    0    1.17e+00
2006 05 03  0550    53858   21000      0    1.63e+00    0    1.15e+00
2006 05 03  0555    53858   21300      0    1.66e+00    0    1.17e+00
2006 05 03  0600    53858   21600      0    1.67e+00    0    1.17e+00
2006 05 03  0605    53858   21900      0    1.61e+00    0    1.12e+00
2006 05 03  0610    53858   22200      0    1.66e+00    0    1.16e+00
2006 05 03  0615    53858   22500      0    1.67e+00    0    1.17e+00
2006 05 03  0620    53858   22800      0    1.65e+00    0    1.15e+00
2006 05 03  0625    53858   23100      0    1.64e+00    0    1.16e+00
2006 05 03  0630    53858   23400      0    1.67e+00    0    1.16e+00
2006 05 03  0635    53858   23700      0    1.63e+00    0    1.14e+00
2006 05 03  0640    53858   24000      0    1.62e+00    0    1.13e+00
2006 05 03  0645    53858   24300      0    1.63e+00    0    1.14e+00
2006 05 03  0650    53858   24600      0    1.60e+00    0    1.13e+00
2006 05 03  0655    53858   24900      0    1.62e+00    0    1.13e+00
2006 05 03  0700    53858   25200      0    1.64e+00    0    1.15e+00
2006 05 03  0705    53858   25500      0    1.64e+00    0    1.15e+00
2006 05 03  0710    53858   25800      0    1.67e+00    0    1.17e+00
2006 05 03  0715    53858   26100      0    1.65e+00    0    1.16e+00
2006 05 03  0720    53858   26400      0    1.65e+00    0    1.15e+00
2006 05 03  0725    53858   26700      0    1.67e+00    0    1.15e+00
2006 05 03  0730    53858   27000      0    1.62e+00    0    1.13e+00
2006 05 03  0735    53858   27300      0    1.62e+00    0    1.14e+00
2006 05 03  0740    53858   27600      0    1.61e+00    0    1.13e+00
2006 05 03  0745    53858   27900      0    1.63e+00    0    1.14e+00
2006 05 03  0750    53858   28200      0    1.65e+00    0    1.16e+00
2006 05 03  0755    53858   28500      0    1.60e+00    0    1.14e+00
2006 05 03  0800    53858   28800      0    1.60e+00    0    1.12e+00
2006 05 03  0805    53858   29100      0    1.61e+00    0    1.14e+00
2006 05 03  0810    53858   29400      0    1.65e+00    0    1.16e+00
2006 05 03  0815    53858   29700      0    1.62e+00    0    1.12e+00
2006 05 03  0820    53858   30000      0    1.63e+00    0    1.14e+00
2006 05 03  0825    53858   30300      0    1.65e+00    0    1.17e+00
2006 05 03  0830    53858   30600      0    1.64e+00    0    1.16e+00
2006 05 03  0835    53858   30900      0    1.61e+00    0    1.13e+00
2006 05 03  0840    53858   31200      0    1.66e+00    0    1.16e+00
2006 05 03  0845    53858   31500      0    1.66e+00    0    1.16e+00
2006 05 03  0850    53858   31800      0    1.64e+00    0    1.14e+00
2006 05 03  0855    53858   32100      0    1.66e+00    0    1.17e+00
2006 05 03  0900    53858   32400      0    1.62e+00    0    1.14e+00
2006 05 03  0905    53858   32700      0    1.64e+00    0    1.16e+00
2006 05 03  0910    53858   33000      0    1.61e+00    0    1.14e+00
2006 05 03  0915    53858   33300      0    1.65e+00    0    1.15e+00
2006 05 03  0920    53858   33600      0    1.63e+00    0    1.15e+00
2006 05 03  0925    53858   33900      0    1.61e+00    0    1.12e+00
2006 05 03  0930    53858   34200      0    1.64e+00    0    1.15e+00
2006 05 03  0935    53858   34500      0    1.63e+00    0    1.14e+00
2006 05 03  0940    53858   34800      0    1.64e+00    0    1.15e+00
2006 05 03  0945    53858   35100      0    1.63e+00    0    1.14e+00
2006 05 03  0950    53858   35400      0    1.64e+00    0    1.15e+00
2006 05 03  0955    53858   35700      0    1.64e+00    0    1.15e+00
2006 05 03  1000    53858   36000      0    1.65e+00    0    1.15e+00
2006 05 03  1005    53858   36300      0    1.64e+00    0    1.15e+00
2006 05 03  1010    53858   36600      0    1.65e+00    0    1.16e+00
2006 05 03  1015    53858   36900      0    1.63e+00    0    1.13e+00
2006 05 03  1020    53858   37200      0    1.66e+00    0    1.16e+00
2006 05 03  1025    53858   37500      0    1.62e+00    0    1.13e+00
2006 05 03  1030    53858   37800      0    1.64e+00    0    1.14e+00
2006 05 03  1035    53858   38100      0    1.62e+00    0    1.12e+00
2006 05 03  1040    53858   38400      0    1.65e+00    0    1.17e+00
2006 05 03  1045    53858   38700      0    1.59e+00    0    1.12e+00
2006 05 03  1050    53858   39000      0    1.65e+00    0    1.15e+00
2006 05 03  1055    53858   39300      0    1.64e+00    0    1.15e+00
2006 05 03  1100    53858   39600      0    1.63e+00    0    1.14e+00
2006 05 03  1105    53858   39900      0    1.67e+00    0    1.17e+00
2006 05 03  1110    53858   40200      0    1.68e+00    0    1.18e+00
2006 05 03  1115    53858   40500      0    1.67e+00    0    1.17e+00
2006 05 03  1120    53858   40800      0    1.62e+00    0    1.15e+00
2006 05 03  1125    53858   41100      0    1.66e+00    0    1.17e+00
2006 05 03  1130    53858   41400      0    1.62e+00    0    1.13e+00
2006 05 03  1135    53858   41700      0    1.63e+00    0    1.15e+00
2006 05 03  1140    53858   42000      0    1.65e+00    0    1.16e+00
2006 05 03  1145    53858   42300      0    1.63e+00    0    1.15e+00
2006 05 03  1150    53858   42600      0    1.62e+00    0    1.15e+00
2006 05 03  1155    53858   42900      0    1.65e+00    0    1.17e+00
2006 05 03  1200    53858   43200      0    1.60e+00    0    1.12e+00
2006 05 03  1205    53858   43500      0    1.66e+00    0    1.15e+00
2006 05 03  1210    53858   43800      0    1.68e+00    0    1.18e+00
2006 05 03  1215    53858   44100      0    1.61e+00    0    1.12e+00
2006 05 03  1220    53858   44400      0    1.61e+00    0    1.13e+00
2006 05 03  1225    53858   44700      0    1.62e+00    0    1.13e+00
2006 05 03  1230    53858   45000      0    1.66e+00    0    1.17e+00
2006 05 03  1235    53858   45300      0    1.64e+00    0    1.15e+00
2006 05 03  1240    53858   45600      0    1.65e+00    0    1.16e+00
2006 05 03  1245    53858   45900      0    1.64e+00    0    1.15e+00
2006 05 03  1250    53858   46200      0    1.62e+00    0    1.13e+00
2006 05 03  1255    53858   46500      0    1.60e+00    0    1.12e+00
2006 05 03  1300    53858   46800      0    1.61e+00    0    1.12e+00
2006 05 03  1305    53858   47100      0    1.60e+00    0    1.12e+00
2006 05 03  1310    53858   47400      0    1.64e+00    0    1.15e+00
2006 05 03  1315    53858   47700      0    1.62e+00    0    1.13e+00
2006 05 03  1320    53858   48000      0    1.59e+00    0    1.11e+00
2006 05 03  1325    53858   48300      0    1.63e+00    0    1.14e+00
2006 05 03  1330    53858   48600      0    1.62e+00    0    1.13e+00
2006 05 03  1335    53858   48900      0    1.65e+00    0    1.15e+00
2006 05 03  1340    53858   49200      0    1.63e+00    0    1.15e+00
2006 05 03  1345    53858   49500      0    1.62e+00    0    1.14e+00
2006 05 03  1350    53858   49800      0    1.65e+00    0    1.16e+00
2006 05 03  1355    53858   50100      0    1.69e+00    0    1.18e+00
2006 05 03  1400    53858   50400      0    1.62e+00    0    1.14e+00
2006 05 03  1405    53858   50700      0    1.63e+00    0    1.14e+00
2006 05 03  1410    53858   51000      0    1.63e+00    0    1.15e+00
2006 05 03  1415    53858   51300      0    1.66e+00    0    1.16e+00
2006 05 03  1420    53858   51600      0    1.59e+00    0    1.11e+00
2006 05 03  1425    53858   51900      0    1.64e+00    0    1.15e+00
2006 05 03  1430    53858   52200      0    1.62e+00    0    1.13e+00
2006 05 03  1435    53858   52500      0    1.63e+00    0    1.13e+00
2006 05 03  1440    53858   52800      0    1.59e+00    0    1.12e+00
2006 05 03  1445    53858   53100      0    1.62e+00    0    1.15e+00
2006 05 03  1450    53858   53400      0    1.60e+00    0    1.12e+00
2006 05 03  1455    53858   53700      0    1.66e+00    0    1.17e+00
2006 05 03  1500    53858   54000      0    1.63e+00    0    1.14e+00
2006 05 03  1505    53858   54300      0    1.64e+00    0    1.14e+00
2006 05 03  1510    53858   54600      0    1.62e+00    0    1.15e+00
2006 05 03  1515    53858   54900      0    1.60e+00    0    1.11e+00
2006 05 03  1520    53858   55200      0    1.61e+00    0    1.14e+00
2006 05 03  1525    53858   55500      0    1.61e+00    0    1.13e+00
2006 05 03  1530    53858   55800      0    1.64e+00    0    1.14e+00
2006 05 03  1535    53858   56100      0    1.63e+00    0    1.13e+00
2006 05 03  1540    53858   56400      0    1.65e+00    0    1.15e+00
2006 05 03  1545    53858   56700      0    1.65e+00    0    1.15e+00
2006 05 03  1550    53858   57000      0    1.62e+00    0    1.13e+00
2006 05 03  1555    53858   57300      0    1.65e+00    0    1.15e+00
2006 05 03  1600    53858   57600      0    1.65e+00    0    1.16e+00
2006 05 03  1605    53858   57900      0    1.63e+00    0    1.15e+00
2006 05 03  1610    53858   58200      0    1.59e+00    0    1.12e+00
2006 05 03  1615    53858   58500      0    1.66e+00    0    1.15e+00
2006 05 03  1620    53858   58800      0    1.61e+00    0    1.13e+00
2006 05 03  1625    53858   59100      0    1.61e+00    0    1.13e+00
2006 05 03  1630    53858   59400      0    1.62e+00    0    1.13e+00
2006 05 03  1635    53858   59700      0    1.64e+00    0    1.15e+00
2006 05 03  1640    53858   60000      0    1.63e+00    0    1.13e+00
2006 05 03  1645    53858   60300      0    1.63e+00    0    1.15e+00
2006 05 03  1650    53858   60600      0    1.65e+00    0    1.15e+00
2006 05 03  1655    53858   60900      0    1.68e+00    0    1.18e+00
2006 05 03  1700    53858   61200      0    1.64e+00    0    1.15e+00
2006 05 03  1705    53858   61500      0    1.63e+00    0    1.14e+00
2006 05 03  1710    53858   61800      0    1.62e+00    0    1.13e+00
2006 05 03  1715    53858   62100      0    1.60e+00    0    1.12e+00
2006 05 03  1720    53858   62400      0    1.64e+00    0    1.14e+00
2006 05 03  1725    53858   62700      0    1.61e+00    0    1.13e+00
2006 05 03  1730    53858   63000      0    1.66e+00    0    1.16e+00
2006 05 03  1735    53858   63300      0    1.60e+00    0    1.13e+00
2006 05 03  1740    53858   63600      0    1.61e+00    0    1.13e+00
2006 05 03  1745    53858   63900      0    1.60e+00    0    1.12e+00
2006 05 03  1750    53858   64200      0    1.65e+00    0    1.15e+00
2006 05 03  1755    53858   64500      0    1.60e+00    0    1.12e+00
2006 05 03  1800    53858   64800      0    1.67e+00    0    1.17e+00
2006 05 03  1805    53858   65100      0    1.63e+00    0    1.14e+00
2006 05 03  1810    53858   65400      0    1.63e+00    0    1.15e+00
2006 05 03  1815    53858   65700      0    1.62e+00    0    1.14e+00
2006 05 03  1820    53858   66000      0    1.59e+00    0    1.12e+00
2006 05 03  1825    53858   66300      0    1.61e+00    0    1.12e+00
2006 05 03  1830    53858   66600      0    1.65e+00    0    1.16e+00
2006 05 03  1835    53858   66900      0    1.62e+00    0    1.13e+00
2006 05 03  1840    53858   67200      0    1.64e+00    0    1.16e+00
2006 05 03  1845    53858   67500      0    1.63e+00    0    1.16e+00
2006 05 03  1850    53858   67800      0    1.65e+00    0    1.16e+00
2006 05 03  1855    53858   68100      0    1.62e+00    0    1.12e+00
2006 05 03  1900    53858   68400      0    1.64e+00    0    1.14e+00
2006 05 03  1905    53858   68700      0    1.60e+00    0    1.11e+00
2006 05 03  1910    53858   69000      0    1.67e+00    0    1.16e+00
2006 05 03  1915    53858   69300      0    1.61e+00    0    1.13e+00
2006 05 03  1920    53858   69600      0    1.68e+00    0    1.18e+00
2006 05 03  1925    53858   69900      0    1.64e+00    0    1.15e+00
2006 05 03  1930    53858   70200      0    1.65e+00    0    1.16e+00
2006 05 03  1935    53858   70500      0    1.63e+00    0    1.14e+00
2006 05 03  1940    53858   70800      0    1.61e+00    0    1.13e+00
2006 05 03  1945    53858   71100      0    1.63e+00    0    1.14e+00
2006 05 03  1950    53858   71400      0    1.62e+00    0    1.14e+00
2006 05 03  1955    53858   71700      0    1.61e+00    0    1.13e+00
2006 05 03  2000    53858   72000      0    1.63e+00    0    1.14e+00
2006 05 03  2005    53858   72300      0    1.59e+00    0    1.12e+00
2006 05 03  2010    53858   72600      0    1.61e+00    0    1.12e+00
2006 05 03  2015    53858   72900      0    1.60e+00    0    1.13e+00
2006 05 03  2020    53858   73200      0    1.67e+00    0    1.18e+00
2006 05 03  2025    53858   73500      0    1.68e+00    0    1.17e+00
2006 05 03  2030    53858   73800      0    1.64e+00    0    1.15e+00
2006 05 03  2035    53858   74100      0    1.61e+00    0    1.15e+00
2006 05 03  2040    53858   74400      0    1.58e+00    0    1.13e+00
2006 05 03  2045    53858   74700      0    1.63e+00    0    1.14e+00
2006 05 03  2050    53858   75000      0    1.62e+00    0    1.13e+00
2006 05 03  2055    53858   75300      0    1.61e+00    0    1.12e+00
2006 05 03  2100    53858   75600      0    1.62e+00    0    1.13e+00
2006 05 03  2105    53858   75900      0    1.63e+00    0    1.14e+00
2006 05 03  2110    53858   76200      0    1.64e+00    0    1.15e+00
2006 05 03  2115    53858   76500      0    1.65e+00    0    1.16e+00
2006 05 03  2120    53858   76800      0    1.58e+00    0    1.11e+00
2006 05 03  2125    53858   77100      0    1.61e+00    0    1.14e+00
2006 05 03  2130    53858   77400      0    1.64e+00    0    1.15e+00
2006 05 03  2135    53858   77700      0    1.60e+00    0    1.11e+00
2006 05 03  2140    53858   78000      0    1.61e+00    0    1.12e+00
2006 05 03  2145    53858   78300      0    1.62e+00    0    1.14e+00
2006 05 03  2150    53858   78600      0    1.62e+00    0    1.14e+00
2006 05 03  2155    53858   78900      0    1.63e+00    0    1.15e+00
2006 05 03  2200    53858   79200      0    1.59e+00    0    1.11e+00
2006 05 03  2205    53858   79500      0    1.55e+00    0    1.07e+00
2006 05 03  2210    53858   79800      0    1.61e+00    0    1.13e+00
2006 05 03  2215    53858   80100      0    1.61e+00    0    1.13e+00
2006 05 03  2220    53858   80400      0    1.60e+00    0    1.12e+00
2006 05 03  2225    53858   80700      0    1.66e+00    0    1.16e+00
2006 05 03  2230    53858   81000      0    1.61e+00    0    1.13e+00
2006 05 03  2235    53858   81300      0    1.60e+00    0    1.11e+00
2006 05 03  2240    53858   81600      0    1.66e+00    0    1.16e+00
2006 05 03  2245    53858   81900      0    1.64e+00    0    1.14e+00
2006 05 03  2250    53858   82200      0    1.60e+00    0    1.13e+00
2006 05 03  2255    53858   82500      0    1.61e+00    0    1.14e+00
2006 05 03  2300    53858   82800      0    1.61e+00    0    1.12e+00
2006 05 03  2305    53858   83100      0    1.61e+00    0    1.12e+00
2006 05 03  2310    53858   83400      0    1.65e+00    0    1.16e+00
2006 05 03  2315    53858   83700      0    1.62e+00    0    1.14e+00
2006 05 03  2320    53858   84000      0    1.60e+00    0    1.11e+00
2006 05 03  2325    53858   84300      0    1.65e+00    0    1.17e+00
2006 05 03  2330    53858   84600      0    1.63e+00    0    1.15e+00
2006 05 03  2335    53858   84900      0    1.63e+00    0    1.14e+00
2006 05 03  2340    53858   85200      0    1.63e+00    0    1.14e+00
2006 05 03  2345    53858   85500      0    1.62e+00    0    1.14e+00
2006 05 03  2350    53858   85800      0    1.61e+00    0    1.15e+00
2006 05 03  2355    53858   86100      0    1.65e+00    0    1.15e+00
