:Data_list: 20060430_ace_sis_5m.txt
:Created: 2006 May 01 0011 UT
# Prepared by the U.S. Dept. of Commerce, NOAA, Space Environment Center.
# Please send comments and suggestions to SEC.Webmaster@noaa.gov 
# 
# Units: proton flux p/cs2-sec-ster
# Status(S): 0 = nominal data, 1 to 8 = bad data record, 9 = no data
# Missing data values: -1.00e+05
# Source: ACE Satellite - Solar Isotope Spectrometer
#
# 5-minute averaged Real-time Integral Flux of High-energy Solar Protons
# 
#                 Modified Seconds
# UT Date   Time   Julian  of the      ---- Integral Proton Flux ----
# YR MO DA  HHMM     Day     Day       S    > 10 MeV    S    > 30 MeV
#--------------------------------------------------------------------
2006 04 30  0000    53855       0      0    1.59e+00    0    1.11e+00
2006 04 30  0005    53855     300      0    1.61e+00    0    1.14e+00
2006 04 30  0010    53855     600      0    1.58e+00    0    1.11e+00
2006 04 30  0015    53855     900      0    1.59e+00    0    1.13e+00
2006 04 30  0020    53855    1200      0    1.60e+00    0    1.11e+00
2006 04 30  0025    53855    1500      0    1.60e+00    0    1.12e+00
2006 04 30  0030    53855    1800      0    1.59e+00    0    1.13e+00
2006 04 30  0035    53855    2100      0    1.63e+00    0    1.16e+00
2006 04 30  0040    53855    2400      0    1.59e+00    0    1.11e+00
2006 04 30  0045    53855    2700      0    1.60e+00    0    1.12e+00
2006 04 30  0050    53855    3000      0    1.61e+00    0    1.12e+00
2006 04 30  0055    53855    3300      0    1.62e+00    0    1.14e+00
2006 04 30  0100    53855    3600      0    1.58e+00    0    1.11e+00
2006 04 30  0105    53855    3900      0    1.59e+00    0    1.11e+00
2006 04 30  0110    53855    4200      0    1.60e+00    0    1.12e+00
2006 04 30  0115    53855    4500      0    1.59e+00    0    1.13e+00
2006 04 30  0120    53855    4800      0    1.58e+00    0    1.11e+00
2006 04 30  0125    53855    5100      0    1.61e+00    0    1.12e+00
2006 04 30  0130    53855    5400      0    1.59e+00    0    1.11e+00
2006 04 30  0135    53855    5700      0    1.60e+00    0    1.12e+00
2006 04 30  0140    53855    6000      0    1.58e+00    0    1.12e+00
2006 04 30  0145    53855    6300      0    1.58e+00    0    1.11e+00
2006 04 30  0150    53855    6600      0    1.58e+00    0    1.10e+00
2006 04 30  0155    53855    6900      0    1.59e+00    0    1.12e+00
2006 04 30  0200    53855    7200      0    1.60e+00    0    1.13e+00
2006 04 30  0205    53855    7500      0    1.64e+00    0    1.16e+00
2006 04 30  0210    53855    7800      0    1.56e+00    0    1.10e+00
2006 04 30  0215    53855    8100      0    1.55e+00    0    1.09e+00
2006 04 30  0220    53855    8400      0    1.56e+00    0    1.10e+00
2006 04 30  0225    53855    8700      0    1.58e+00    0    1.11e+00
2006 04 30  0230    53855    9000      0    1.60e+00    0    1.12e+00
2006 04 30  0235    53855    9300      0    1.56e+00    0    1.09e+00
2006 04 30  0240    53855    9600      0    1.61e+00    0    1.13e+00
2006 04 30  0245    53855    9900      0    1.58e+00    0    1.10e+00
2006 04 30  0250    53855   10200      0    1.61e+00    0    1.12e+00
2006 04 30  0255    53855   10500      0    1.61e+00    0    1.13e+00
2006 04 30  0300    53855   10800      0    1.61e+00    0    1.13e+00
2006 04 30  0305    53855   11100      0    1.58e+00    0    1.09e+00
2006 04 30  0310    53855   11400      0    1.61e+00    0    1.13e+00
2006 04 30  0315    53855   11700      0    1.58e+00    0    1.12e+00
2006 04 30  0320    53855   12000      0    1.63e+00    0    1.15e+00
2006 04 30  0325    53855   12300      0    1.62e+00    0    1.13e+00
2006 04 30  0330    53855   12600      0    1.58e+00    0    1.10e+00
2006 04 30  0335    53855   12900      0    1.54e+00    0    1.08e+00
2006 04 30  0340    53855   13200      0    1.63e+00    0    1.14e+00
2006 04 30  0345    53855   13500      0    1.60e+00    0    1.12e+00
2006 04 30  0350    53855   13800      0    1.56e+00    0    1.09e+00
2006 04 30  0355    53855   14100      0    1.56e+00    0    1.10e+00
2006 04 30  0400    53855   14400      0    1.62e+00    0    1.14e+00
2006 04 30  0405    53855   14700      0    1.60e+00    0    1.11e+00
2006 04 30  0410    53855   15000      0    1.64e+00    0    1.14e+00
2006 04 30  0415    53855   15300      0    1.59e+00    0    1.12e+00
2006 04 30  0420    53855   15600      0    1.61e+00    0    1.12e+00
2006 04 30  0425    53855   15900      0    1.59e+00    0    1.12e+00
2006 04 30  0430    53855   16200      0    1.60e+00    0    1.13e+00
2006 04 30  0435    53855   16500      0    1.60e+00    0    1.12e+00
2006 04 30  0440    53855   16800      0    1.58e+00    0    1.11e+00
2006 04 30  0445    53855   17100      0    1.60e+00    0    1.12e+00
2006 04 30  0450    53855   17400      0    1.56e+00    0    1.09e+00
2006 04 30  0455    53855   17700      0    1.60e+00    0    1.11e+00
2006 04 30  0500    53855   18000      0    1.57e+00    0    1.10e+00
2006 04 30  0505    53855   18300      0    1.62e+00    0    1.14e+00
2006 04 30  0510    53855   18600      0    1.57e+00    0    1.10e+00
2006 04 30  0515    53855   18900      0    1.57e+00    0    1.10e+00
2006 04 30  0520    53855   19200      0    1.58e+00    0    1.11e+00
2006 04 30  0525    53855   19500      0    1.62e+00    0    1.14e+00
2006 04 30  0530    53855   19800      0    1.57e+00    0    1.11e+00
2006 04 30  0535    53855   20100      0    1.60e+00    0    1.11e+00
2006 04 30  0540    53855   20400      0    1.63e+00    0    1.14e+00
2006 04 30  0545    53855   20700      0    1.58e+00    0    1.10e+00
2006 04 30  0550    53855   21000      0    1.58e+00    0    1.11e+00
2006 04 30  0555    53855   21300      0    1.62e+00    0    1.14e+00
2006 04 30  0600    53855   21600      0    1.63e+00    0    1.14e+00
2006 04 30  0605    53855   21900      0    1.60e+00    0    1.13e+00
2006 04 30  0610    53855   22200      0    1.57e+00    0    1.09e+00
2006 04 30  0615    53855   22500      0    1.62e+00    0    1.15e+00
2006 04 30  0620    53855   22800      0    1.59e+00    0    1.10e+00
2006 04 30  0625    53855   23100      0    1.63e+00    0    1.13e+00
2006 04 30  0630    53855   23400      0    1.61e+00    0    1.11e+00
2006 04 30  0635    53855   23700      0    1.57e+00    0    1.11e+00
2006 04 30  0640    53855   24000      0    1.64e+00    0    1.16e+00
2006 04 30  0645    53855   24300      0    1.61e+00    0    1.13e+00
2006 04 30  0650    53855   24600      0    1.60e+00    0    1.12e+00
2006 04 30  0655    53855   24900      0    1.62e+00    0    1.14e+00
2006 04 30  0700    53855   25200      0    1.61e+00    0    1.13e+00
2006 04 30  0705    53855   25500      0    1.61e+00    0    1.13e+00
2006 04 30  0710    53855   25800      0    1.62e+00    0    1.14e+00
2006 04 30  0715    53855   26100      0    1.63e+00    0    1.13e+00
2006 04 30  0720    53855   26400      0    1.60e+00    0    1.12e+00
2006 04 30  0725    53855   26700      0    1.60e+00    0    1.13e+00
2006 04 30  0730    53855   27000      0    1.60e+00    0    1.12e+00
2006 04 30  0735    53855   27300      0    1.57e+00    0    1.11e+00
2006 04 30  0740    53855   27600      0    1.62e+00    0    1.12e+00
2006 04 30  0745    53855   27900      0    1.60e+00    0    1.13e+00
2006 04 30  0750    53855   28200      0    1.58e+00    0    1.10e+00
2006 04 30  0755    53855   28500      0    1.61e+00    0    1.12e+00
2006 04 30  0800    53855   28800      0    1.60e+00    0    1.11e+00
2006 04 30  0805    53855   29100      0    1.63e+00    0    1.14e+00
2006 04 30  0810    53855   29400      0    1.61e+00    0    1.12e+00
2006 04 30  0815    53855   29700      0    1.62e+00    0    1.15e+00
2006 04 30  0820    53855   30000      0    1.60e+00    0    1.12e+00
2006 04 30  0825    53855   30300      0    1.59e+00    0    1.10e+00
2006 04 30  0830    53855   30600      0    1.57e+00    0    1.10e+00
2006 04 30  0835    53855   30900      0    1.62e+00    0    1.11e+00
2006 04 30  0840    53855   31200      0    1.62e+00    0    1.13e+00
2006 04 30  0845    53855   31500      0    1.61e+00    0    1.12e+00
2006 04 30  0850    53855   31800      0    1.58e+00    0    1.10e+00
2006 04 30  0855    53855   32100      0    1.59e+00    0    1.12e+00
2006 04 30  0900    53855   32400      0    1.60e+00    0    1.12e+00
2006 04 30  0905    53855   32700      0    1.62e+00    0    1.14e+00
2006 04 30  0910    53855   33000      0    1.61e+00    0    1.14e+00
2006 04 30  0915    53855   33300      0    1.61e+00    0    1.13e+00
2006 04 30  0920    53855   33600      0    1.62e+00    0    1.14e+00
2006 04 30  0925    53855   33900      0    1.59e+00    0    1.11e+00
2006 04 30  0930    53855   34200      0    1.62e+00    0    1.14e+00
2006 04 30  0935    53855   34500      0    1.59e+00    0    1.11e+00
2006 04 30  0940    53855   34800      0    1.58e+00    0    1.10e+00
2006 04 30  0945    53855   35100      0    1.59e+00    0    1.12e+00
2006 04 30  0950    53855   35400      0    1.61e+00    0    1.13e+00
2006 04 30  0955    53855   35700      0    1.60e+00    0    1.11e+00
2006 04 30  1000    53855   36000      0    1.60e+00    0    1.14e+00
2006 04 30  1005    53855   36300      0    1.57e+00    0    1.10e+00
2006 04 30  1010    53855   36600      0    1.61e+00    0    1.13e+00
2006 04 30  1015    53855   36900      0    1.59e+00    0    1.11e+00
2006 04 30  1020    53855   37200      0    1.62e+00    0    1.14e+00
2006 04 30  1025    53855   37500      0    1.62e+00    0    1.15e+00
2006 04 30  1030    53855   37800      0    1.63e+00    0    1.14e+00
2006 04 30  1035    53855   38100      0    1.58e+00    0    1.10e+00
2006 04 30  1040    53855   38400      0    1.59e+00    0    1.11e+00
2006 04 30  1045    53855   38700      0    1.62e+00    0    1.13e+00
2006 04 30  1050    53855   39000      0    1.61e+00    0    1.13e+00
2006 04 30  1055    53855   39300      0    1.60e+00    0    1.12e+00
2006 04 30  1100    53855   39600      0    1.59e+00    0    1.12e+00
2006 04 30  1105    53855   39900      0    1.61e+00    0    1.13e+00
2006 04 30  1110    53855   40200      0    1.62e+00    0    1.12e+00
2006 04 30  1115    53855   40500      0    1.60e+00    0    1.11e+00
2006 04 30  1120    53855   40800      0    1.61e+00    0    1.13e+00
2006 04 30  1125    53855   41100      0    1.63e+00    0    1.16e+00
2006 04 30  1130    53855   41400      0    1.64e+00    0    1.15e+00
2006 04 30  1135    53855   41700      0    1.61e+00    0    1.13e+00
2006 04 30  1140    53855   42000      0    1.60e+00    0    1.11e+00
2006 04 30  1145    53855   42300      0    1.61e+00    0    1.12e+00
2006 04 30  1150    53855   42600      0    1.62e+00    0    1.14e+00
2006 04 30  1155    53855   42900      0    1.62e+00    0    1.14e+00
2006 04 30  1200    53855   43200      0    1.64e+00    0    1.15e+00
2006 04 30  1205    53855   43500      0    1.63e+00    0    1.15e+00
2006 04 30  1210    53855   43800      0    1.58e+00    0    1.10e+00
2006 04 30  1215    53855   44100      0    1.61e+00    0    1.13e+00
2006 04 30  1220    53855   44400      0    1.63e+00    0    1.14e+00
2006 04 30  1225    53855   44700      0    1.62e+00    0    1.13e+00
2006 04 30  1230    53855   45000      0    1.62e+00    0    1.14e+00
2006 04 30  1235    53855   45300      0    1.63e+00    0    1.12e+00
2006 04 30  1240    53855   45600      0    1.55e+00    0    1.09e+00
2006 04 30  1245    53855   45900      0    1.57e+00    0    1.10e+00
2006 04 30  1250    53855   46200      0    1.64e+00    0    1.15e+00
2006 04 30  1255    53855   46500      0    1.62e+00    0    1.12e+00
2006 04 30  1300    53855   46800      0    1.58e+00    0    1.11e+00
2006 04 30  1305    53855   47100      0    1.58e+00    0    1.10e+00
2006 04 30  1310    53855   47400      0    1.62e+00    0    1.13e+00
2006 04 30  1315    53855   47700      0    1.62e+00    0    1.14e+00
2006 04 30  1320    53855   48000      0    1.62e+00    0    1.13e+00
2006 04 30  1325    53855   48300      0    1.65e+00    0    1.15e+00
2006 04 30  1330    53855   48600      0    1.60e+00    0    1.11e+00
2006 04 30  1335    53855   48900      0    1.55e+00    0    1.10e+00
2006 04 30  1340    53855   49200      0    1.60e+00    0    1.13e+00
2006 04 30  1345    53855   49500      0    1.60e+00    0    1.12e+00
2006 04 30  1350    53855   49800      0    1.59e+00    0    1.12e+00
2006 04 30  1355    53855   50100      0    1.59e+00    0    1.12e+00
2006 04 30  1400    53855   50400      0    1.59e+00    0    1.11e+00
2006 04 30  1405    53855   50700      0    1.59e+00    0    1.12e+00
2006 04 30  1410    53855   51000      0    1.59e+00    0    1.13e+00
2006 04 30  1415    53855   51300      0    1.59e+00    0    1.11e+00
2006 04 30  1420    53855   51600      0    1.64e+00    0    1.16e+00
2006 04 30  1425    53855   51900      0    1.63e+00    0    1.16e+00
2006 04 30  1430    53855   52200      0    1.61e+00    0    1.12e+00
2006 04 30  1435    53855   52500      0    1.57e+00    0    1.09e+00
2006 04 30  1440    53855   52800      0    1.59e+00    0    1.11e+00
2006 04 30  1445    53855   53100      0    1.61e+00    0    1.13e+00
2006 04 30  1450    53855   53400      0    1.59e+00    0    1.11e+00
2006 04 30  1455    53855   53700      0    1.60e+00    0    1.11e+00
2006 04 30  1500    53855   54000      0    1.61e+00    0    1.14e+00
2006 04 30  1505    53855   54300      0    1.60e+00    0    1.12e+00
2006 04 30  1510    53855   54600      0    1.61e+00    0    1.14e+00
2006 04 30  1515    53855   54900      0    1.60e+00    0    1.12e+00
2006 04 30  1520    53855   55200      0    1.53e+00    0    1.07e+00
2006 04 30  1525    53855   55500      0    1.61e+00    0    1.14e+00
2006 04 30  1530    53855   55800      0    1.59e+00    0    1.12e+00
2006 04 30  1535    53855   56100      0    1.58e+00    0    1.10e+00
2006 04 30  1540    53855   56400      0    1.58e+00    0    1.10e+00
2006 04 30  1545    53855   56700      0    1.61e+00    0    1.13e+00
2006 04 30  1550    53855   57000      0    1.63e+00    0    1.13e+00
2006 04 30  1555    53855   57300      0    1.60e+00    0    1.12e+00
2006 04 30  1600    53855   57600      0    1.59e+00    0    1.11e+00
2006 04 30  1605    53855   57900      0    1.61e+00    0    1.13e+00
2006 04 30  1610    53855   58200      0    1.62e+00    0    1.14e+00
2006 04 30  1615    53855   58500      0    1.60e+00    0    1.12e+00
2006 04 30  1620    53855   58800      0    1.62e+00    0    1.14e+00
2006 04 30  1625    53855   59100      0    1.60e+00    0    1.12e+00
2006 04 30  1630    53855   59400      0    1.56e+00    0    1.11e+00
2006 04 30  1635    53855   59700      0    1.57e+00    0    1.10e+00
2006 04 30  1640    53855   60000      0    1.60e+00    0    1.13e+00
2006 04 30  1645    53855   60300      0    1.58e+00    0    1.11e+00
2006 04 30  1650    53855   60600      0    1.62e+00    0    1.13e+00
2006 04 30  1655    53855   60900      0    1.59e+00    0    1.12e+00
2006 04 30  1700    53855   61200      0    1.62e+00    0    1.14e+00
2006 04 30  1705    53855   61500      0    1.60e+00    0    1.12e+00
2006 04 30  1710    53855   61800      0    1.62e+00    0    1.14e+00
2006 04 30  1715    53855   62100      0    1.60e+00    0    1.12e+00
2006 04 30  1720    53855   62400      0    1.61e+00    0    1.14e+00
2006 04 30  1725    53855   62700      0    1.62e+00    0    1.13e+00
2006 04 30  1730    53855   63000      0    1.62e+00    0    1.14e+00
2006 04 30  1735    53855   63300      0    1.62e+00    0    1.14e+00
2006 04 30  1740    53855   63600      0    1.61e+00    0    1.13e+00
2006 04 30  1745    53855   63900      0    1.60e+00    0    1.13e+00
2006 04 30  1750    53855   64200      0    1.63e+00    0    1.14e+00
2006 04 30  1755    53855   64500      0    1.64e+00    0    1.14e+00
2006 04 30  1800    53855   64800      0    1.60e+00    0    1.12e+00
2006 04 30  1805    53855   65100      0    1.62e+00    0    1.14e+00
2006 04 30  1810    53855   65400      0    1.62e+00    0    1.14e+00
2006 04 30  1815    53855   65700      0    1.58e+00    0    1.11e+00
2006 04 30  1820    53855   66000      0    1.62e+00    0    1.14e+00
2006 04 30  1825    53855   66300      0    1.59e+00    0    1.11e+00
2006 04 30  1830    53855   66600      0    1.59e+00    0    1.11e+00
2006 04 30  1835    53855   66900      0    1.59e+00    0    1.12e+00
2006 04 30  1840    53855   67200      0    1.66e+00    0    1.17e+00
2006 04 30  1845    53855   67500      0    1.62e+00    0    1.14e+00
2006 04 30  1850    53855   67800      0    1.57e+00    0    1.10e+00
2006 04 30  1855    53855   68100      0    1.63e+00    0    1.15e+00
2006 04 30  1900    53855   68400      0    1.61e+00    0    1.14e+00
2006 04 30  1905    53855   68700      0    1.62e+00    0    1.14e+00
2006 04 30  1910    53855   69000      0    1.60e+00    0    1.12e+00
2006 04 30  1915    53855   69300      0    1.57e+00    0    1.11e+00
2006 04 30  1920    53855   69600      0    1.63e+00    0    1.14e+00
2006 04 30  1925    53855   69900      0    1.60e+00    0    1.12e+00
2006 04 30  1930    53855   70200      0    1.62e+00    0    1.13e+00
2006 04 30  1935    53855   70500      0    1.62e+00    0    1.14e+00
2006 04 30  1940    53855   70800      0    1.62e+00    0    1.14e+00
2006 04 30  1945    53855   71100      0    1.59e+00    0    1.11e+00
2006 04 30  1950    53855   71400      0    1.56e+00    0    1.10e+00
2006 04 30  1955    53855   71700      0    1.59e+00    0    1.12e+00
2006 04 30  2000    53855   72000      0    1.65e+00    0    1.16e+00
2006 04 30  2005    53855   72300      0    1.60e+00    0    1.12e+00
2006 04 30  2010    53855   72600      0    1.56e+00    0    1.09e+00
2006 04 30  2015    53855   72900      0    1.58e+00    0    1.11e+00
2006 04 30  2020    53855   73200      0    1.61e+00    0    1.13e+00
2006 04 30  2025    53855   73500      0    1.65e+00    0    1.17e+00
2006 04 30  2030    53855   73800      0    1.60e+00    0    1.13e+00
2006 04 30  2035    53855   74100      0    1.59e+00    0    1.13e+00
2006 04 30  2040    53855   74400      0    1.62e+00    0    1.12e+00
2006 04 30  2045    53855   74700      0    1.60e+00    0    1.12e+00
2006 04 30  2050    53855   75000      0    1.59e+00    0    1.11e+00
2006 04 30  2055    53855   75300      0    1.61e+00    0    1.12e+00
2006 04 30  2100    53855   75600      0    1.61e+00    0    1.13e+00
2006 04 30  2105    53855   75900      0    1.62e+00    0    1.14e+00
2006 04 30  2110    53855   76200      0    1.63e+00    0    1.14e+00
2006 04 30  2115    53855   76500      0    1.61e+00    0    1.14e+00
2006 04 30  2120    53855   76800      0    1.62e+00    0    1.14e+00
2006 04 30  2125    53855   77100      0    1.57e+00    0    1.10e+00
2006 04 30  2130    53855   77400      0    1.57e+00    0    1.10e+00
2006 04 30  2135    53855   77700      0    1.59e+00    0    1.12e+00
2006 04 30  2140    53855   78000      0    1.62e+00    0    1.14e+00
2006 04 30  2145    53855   78300      0    1.59e+00    0    1.11e+00
2006 04 30  2150    53855   78600      0    1.65e+00    0    1.15e+00
2006 04 30  2155    53855   78900      0    1.58e+00    0    1.12e+00
2006 04 30  2200    53855   79200      0    1.60e+00    0    1.13e+00
2006 04 30  2205    53855   79500      0    1.60e+00    0    1.12e+00
2006 04 30  2210    53855   79800      0    1.59e+00    0    1.12e+00
2006 04 30  2215    53855   80100      0    1.58e+00    0    1.10e+00
2006 04 30  2220    53855   80400      0    1.62e+00    0    1.14e+00
2006 04 30  2225    53855   80700      0    1.60e+00    0    1.12e+00
2006 04 30  2230    53855   81000      0    1.62e+00    0    1.14e+00
2006 04 30  2235    53855   81300      0    1.60e+00    0    1.12e+00
2006 04 30  2240    53855   81600      0    1.61e+00    0    1.12e+00
2006 04 30  2245    53855   81900      0    1.58e+00    0    1.10e+00
2006 04 30  2250    53855   82200      0    1.59e+00    0    1.11e+00
2006 04 30  2255    53855   82500      0    1.61e+00    0    1.13e+00
2006 04 30  2300    53855   82800      0    1.56e+00    0    1.10e+00
2006 04 30  2305    53855   83100      0    1.58e+00    0    1.11e+00
2006 04 30  2310    53855   83400      0    1.63e+00    0    1.14e+00
2006 04 30  2315    53855   83700      0    1.60e+00    0    1.11e+00
2006 04 30  2320    53855   84000      0    1.59e+00    0    1.11e+00
2006 04 30  2325    53855   84300      0    1.62e+00    0    1.14e+00
2006 04 30  2330    53855   84600      0    1.60e+00    0    1.12e+00
2006 04 30  2335    53855   84900      0    1.59e+00    0    1.11e+00
2006 04 30  2340    53855   85200      0    1.61e+00    0    1.13e+00
2006 04 30  2345    53855   85500      0    1.60e+00    0    1.12e+00
2006 04 30  2350    53855   85800      0    1.56e+00    0    1.10e+00
2006 04 30  2355    53855   86100      0    1.60e+00    0    1.12e+00
