:Data_list: 20060925_ace_sis_5m.txt
:Created: 2006 Sep 26 0011 UT
# Prepared by the U.S. Dept. of Commerce, NOAA, Space Environment Center.
# Please send comments and suggestions to SEC.Webmaster@noaa.gov 
# 
# Units: proton flux p/cs2-sec-ster
# Status(S): 0 = nominal data, 1 to 8 = bad data record, 9 = no data
# Missing data values: -1.00e+05
# Source: ACE Satellite - Solar Isotope Spectrometer
#
# 5-minute averaged Real-time Integral Flux of High-energy Solar Protons
# 
#                 Modified Seconds
# UT Date   Time   Julian  of the      ---- Integral Proton Flux ----
# YR MO DA  HHMM     Day     Day       S    > 10 MeV    S    > 30 MeV
#--------------------------------------------------------------------
2006 09 25  0000    54003       0      0    1.66e+00    0    1.16e+00
2006 09 25  0005    54003     300      0    1.65e+00    0    1.16e+00
2006 09 25  0010    54003     600      0    1.67e+00    0    1.18e+00
2006 09 25  0015    54003     900      0    1.62e+00    0    1.13e+00
2006 09 25  0020    54003    1200      0    1.67e+00    0    1.18e+00
2006 09 25  0025    54003    1500      0    1.67e+00    0    1.18e+00
2006 09 25  0030    54003    1800      0    1.68e+00    0    1.17e+00
2006 09 25  0035    54003    2100      0    1.63e+00    0    1.15e+00
2006 09 25  0040    54003    2400      0    1.65e+00    0    1.17e+00
2006 09 25  0045    54003    2700      0    1.59e+00    0    1.11e+00
2006 09 25  0050    54003    3000      0    1.66e+00    0    1.16e+00
2006 09 25  0055    54003    3300      0    1.67e+00    0    1.17e+00
2006 09 25  0100    54003    3600      0    1.65e+00    0    1.14e+00
2006 09 25  0105    54003    3900      0    1.64e+00    0    1.16e+00
2006 09 25  0110    54003    4200      0    1.66e+00    0    1.17e+00
2006 09 25  0115    54003    4500      0    1.64e+00    0    1.16e+00
2006 09 25  0120    54003    4800      0    1.63e+00    0    1.15e+00
2006 09 25  0125    54003    5100      0    1.62e+00    0    1.14e+00
2006 09 25  0130    54003    5400      0    1.64e+00    0    1.14e+00
2006 09 25  0135    54003    5700      0    1.62e+00    0    1.13e+00
2006 09 25  0140    54003    6000      0    1.66e+00    0    1.18e+00
2006 09 25  0145    54003    6300      0    1.71e+00    0    1.19e+00
2006 09 25  0150    54003    6600      0    1.63e+00    0    1.15e+00
2006 09 25  0155    54003    6900      0    1.64e+00    0    1.14e+00
2006 09 25  0200    54003    7200      0    1.61e+00    0    1.12e+00
2006 09 25  0205    54003    7500      0    1.64e+00    0    1.15e+00
2006 09 25  0210    54003    7800      0    1.65e+00    0    1.17e+00
2006 09 25  0215    54003    8100      0    1.66e+00    0    1.17e+00
2006 09 25  0220    54003    8400      0    1.66e+00    0    1.16e+00
2006 09 25  0225    54003    8700      0    1.60e+00    0    1.12e+00
2006 09 25  0230    54003    9000      0    1.64e+00    0    1.15e+00
2006 09 25  0235    54003    9300      0    1.61e+00    0    1.13e+00
2006 09 25  0240    54003    9600      0    1.65e+00    0    1.15e+00
2006 09 25  0245    54003    9900      0    1.66e+00    0    1.17e+00
2006 09 25  0250    54003   10200      0    1.64e+00    0    1.15e+00
2006 09 25  0255    54003   10500      0    1.64e+00    0    1.14e+00
2006 09 25  0300    54003   10800      0    1.59e+00    0    1.11e+00
2006 09 25  0305    54003   11100      0    1.63e+00    0    1.15e+00
2006 09 25  0310    54003   11400      0    1.63e+00    0    1.15e+00
2006 09 25  0315    54003   11700      0    1.64e+00    0    1.14e+00
2006 09 25  0320    54003   12000      0    1.63e+00    0    1.15e+00
2006 09 25  0325    54003   12300      0    1.64e+00    0    1.14e+00
2006 09 25  0330    54003   12600      0    1.61e+00    0    1.13e+00
2006 09 25  0335    54003   12900      0    1.66e+00    0    1.16e+00
2006 09 25  0340    54003   13200      0    1.66e+00    0    1.16e+00
2006 09 25  0345    54003   13500      0    1.63e+00    0    1.13e+00
2006 09 25  0350    54003   13800      0    1.63e+00    0    1.14e+00
2006 09 25  0355    54003   14100      0    1.59e+00    0    1.11e+00
2006 09 25  0400    54003   14400      0    1.64e+00    0    1.14e+00
2006 09 25  0405    54003   14700      0    1.65e+00    0    1.17e+00
2006 09 25  0410    54003   15000      0    1.65e+00    0    1.16e+00
2006 09 25  0415    54003   15300      0    1.67e+00    0    1.16e+00
2006 09 25  0420    54003   15600      0    1.64e+00    0    1.14e+00
2006 09 25  0425    54003   15900      0    1.63e+00    0    1.15e+00
2006 09 25  0430    54003   16200      0    1.64e+00    0    1.16e+00
2006 09 25  0435    54003   16500      0    1.59e+00    0    1.10e+00
2006 09 25  0440    54003   16800      0    1.66e+00    0    1.16e+00
2006 09 25  0445    54003   17100      0    1.68e+00    0    1.17e+00
2006 09 25  0450    54003   17400      0    1.65e+00    0    1.15e+00
2006 09 25  0455    54003   17700      0    1.66e+00    0    1.16e+00
2006 09 25  0500    54003   18000      0    1.66e+00    0    1.17e+00
2006 09 25  0505    54003   18300      0    1.65e+00    0    1.15e+00
2006 09 25  0510    54003   18600      0    1.66e+00    0    1.16e+00
2006 09 25  0515    54003   18900      0    1.64e+00    0    1.15e+00
2006 09 25  0520    54003   19200      0    1.58e+00    0    1.12e+00
2006 09 25  0525    54003   19500      0    1.66e+00    0    1.17e+00
2006 09 25  0530    54003   19800      0    1.61e+00    0    1.13e+00
2006 09 25  0535    54003   20100      0    1.62e+00    0    1.14e+00
2006 09 25  0540    54003   20400      0    1.63e+00    0    1.15e+00
2006 09 25  0545    54003   20700      0    1.64e+00    0    1.16e+00
2006 09 25  0550    54003   21000      0    1.64e+00    0    1.15e+00
2006 09 25  0555    54003   21300      0    1.63e+00    0    1.16e+00
2006 09 25  0600    54003   21600      0    1.64e+00    0    1.15e+00
2006 09 25  0605    54003   21900      0    1.61e+00    0    1.13e+00
2006 09 25  0610    54003   22200      0    1.64e+00    0    1.15e+00
2006 09 25  0615    54003   22500      0    1.65e+00    0    1.15e+00
2006 09 25  0620    54003   22800      0    1.65e+00    0    1.16e+00
2006 09 25  0625    54003   23100      0    1.63e+00    0    1.14e+00
2006 09 25  0630    54003   23400      0    1.65e+00    0    1.16e+00
2006 09 25  0635    54003   23700      0    1.68e+00    0    1.19e+00
2006 09 25  0640    54003   24000      0    1.66e+00    0    1.17e+00
2006 09 25  0645    54003   24300      0    1.67e+00    0    1.17e+00
2006 09 25  0650    54003   24600      0    1.63e+00    0    1.13e+00
2006 09 25  0655    54003   24900      0    1.62e+00    0    1.14e+00
2006 09 25  0700    54003   25200      0    1.64e+00    0    1.16e+00
2006 09 25  0705    54003   25500      0    1.68e+00    0    1.18e+00
2006 09 25  0710    54003   25800      0    1.63e+00    0    1.12e+00
2006 09 25  0715    54003   26100      0    1.61e+00    0    1.13e+00
2006 09 25  0720    54003   26400      0    1.63e+00    0    1.14e+00
2006 09 25  0725    54003   26700      0    1.61e+00    0    1.13e+00
2006 09 25  0730    54003   27000      0    1.61e+00    0    1.13e+00
2006 09 25  0735    54003   27300      0    1.64e+00    0    1.15e+00
2006 09 25  0740    54003   27600      0    1.65e+00    0    1.15e+00
2006 09 25  0745    54003   27900      0    1.63e+00    0    1.13e+00
2006 09 25  0750    54003   28200      0    1.68e+00    0    1.18e+00
2006 09 25  0755    54003   28500      0    1.65e+00    0    1.13e+00
2006 09 25  0800    54003   28800      0    1.62e+00    0    1.14e+00
2006 09 25  0805    54003   29100      0    1.65e+00    0    1.16e+00
2006 09 25  0810    54003   29400      0    1.70e+00    0    1.18e+00
2006 09 25  0815    54003   29700      0    1.65e+00    0    1.16e+00
2006 09 25  0820    54003   30000      0    1.64e+00    0    1.16e+00
2006 09 25  0825    54003   30300      0    1.67e+00    0    1.18e+00
2006 09 25  0830    54003   30600      0    1.65e+00    0    1.16e+00
2006 09 25  0835    54003   30900      0    1.66e+00    0    1.17e+00
2006 09 25  0840    54003   31200      0    1.68e+00    0    1.18e+00
2006 09 25  0845    54003   31500      0    1.66e+00    0    1.16e+00
2006 09 25  0850    54003   31800      0    1.61e+00    0    1.14e+00
2006 09 25  0855    54003   32100      0    1.65e+00    0    1.15e+00
2006 09 25  0900    54003   32400      0    1.65e+00    0    1.17e+00
2006 09 25  0905    54003   32700      0    1.63e+00    0    1.15e+00
2006 09 25  0910    54003   33000      0    1.64e+00    0    1.16e+00
2006 09 25  0915    54003   33300      0    1.68e+00    0    1.17e+00
2006 09 25  0920    54003   33600      0    1.65e+00    0    1.15e+00
2006 09 25  0925    54003   33900      0    1.66e+00    0    1.17e+00
2006 09 25  0930    54003   34200      0    1.67e+00    0    1.17e+00
2006 09 25  0935    54003   34500      0    1.67e+00    0    1.16e+00
2006 09 25  0940    54003   34800      0    1.66e+00    0    1.15e+00
2006 09 25  0945    54003   35100      0    1.65e+00    0    1.15e+00
2006 09 25  0950    54003   35400      0    1.61e+00    0    1.12e+00
2006 09 25  0955    54003   35700      0    1.68e+00    0    1.18e+00
2006 09 25  1000    54003   36000      0    1.63e+00    0    1.14e+00
2006 09 25  1005    54003   36300      0    1.64e+00    0    1.15e+00
2006 09 25  1010    54003   36600      0    1.67e+00    0    1.17e+00
2006 09 25  1015    54003   36900      0    1.66e+00    0    1.16e+00
2006 09 25  1020    54003   37200      0    1.65e+00    0    1.16e+00
2006 09 25  1025    54003   37500      0    1.64e+00    0    1.15e+00
2006 09 25  1030    54003   37800      0    1.69e+00    0    1.18e+00
2006 09 25  1035    54003   38100      0    1.68e+00    0    1.18e+00
2006 09 25  1040    54003   38400      0    1.67e+00    0    1.19e+00
2006 09 25  1045    54003   38700      0    1.63e+00    0    1.14e+00
2006 09 25  1050    54003   39000      0    1.63e+00    0    1.14e+00
2006 09 25  1055    54003   39300      0    1.65e+00    0    1.16e+00
2006 09 25  1100    54003   39600      0    1.68e+00    0    1.18e+00
2006 09 25  1105    54003   39900      0    1.68e+00    0    1.17e+00
2006 09 25  1110    54003   40200      0    1.64e+00    0    1.14e+00
2006 09 25  1115    54003   40500      0    1.61e+00    0    1.13e+00
2006 09 25  1120    54003   40800      0    1.71e+00    0    1.20e+00
2006 09 25  1125    54003   41100      0    1.62e+00    0    1.13e+00
2006 09 25  1130    54003   41400      0    1.65e+00    0    1.16e+00
2006 09 25  1135    54003   41700      0    1.66e+00    0    1.17e+00
2006 09 25  1140    54003   42000      0    1.63e+00    0    1.15e+00
2006 09 25  1145    54003   42300      0    1.64e+00    0    1.14e+00
2006 09 25  1150    54003   42600      0    1.65e+00    0    1.17e+00
2006 09 25  1155    54003   42900      0    1.66e+00    0    1.16e+00
2006 09 25  1200    54003   43200      0    1.65e+00    0    1.14e+00
2006 09 25  1205    54003   43500      0    1.62e+00    0    1.14e+00
2006 09 25  1210    54003   43800      0    1.65e+00    0    1.16e+00
2006 09 25  1215    54003   44100      0    1.67e+00    0    1.18e+00
2006 09 25  1220    54003   44400      0    1.65e+00    0    1.16e+00
2006 09 25  1225    54003   44700      0    1.68e+00    0    1.18e+00
2006 09 25  1230    54003   45000      0    1.62e+00    0    1.13e+00
2006 09 25  1235    54003   45300      0    1.63e+00    0    1.14e+00
2006 09 25  1240    54003   45600      0    1.63e+00    0    1.14e+00
2006 09 25  1245    54003   45900      0    1.67e+00    0    1.17e+00
2006 09 25  1250    54003   46200      0    1.69e+00    0    1.19e+00
2006 09 25  1255    54003   46500      0    1.64e+00    0    1.15e+00
2006 09 25  1300    54003   46800      0    1.66e+00    0    1.17e+00
2006 09 25  1305    54003   47100      0    1.66e+00    0    1.17e+00
2006 09 25  1310    54003   47400      0    1.66e+00    0    1.18e+00
2006 09 25  1315    54003   47700      0    1.66e+00    0    1.17e+00
2006 09 25  1320    54003   48000      0    1.65e+00    0    1.15e+00
2006 09 25  1325    54003   48300      0    1.66e+00    0    1.17e+00
2006 09 25  1330    54003   48600      0    1.61e+00    0    1.13e+00
2006 09 25  1335    54003   48900      0    1.61e+00    0    1.13e+00
2006 09 25  1340    54003   49200      0    1.67e+00    0    1.17e+00
2006 09 25  1345    54003   49500      0    1.62e+00    0    1.13e+00
2006 09 25  1350    54003   49800      0    1.63e+00    0    1.15e+00
2006 09 25  1355    54003   50100      0    1.61e+00    0    1.13e+00
2006 09 25  1400    54003   50400      0    1.61e+00    0    1.13e+00
2006 09 25  1405    54003   50700      0    1.67e+00    0    1.16e+00
2006 09 25  1410    54003   51000      0    1.62e+00    0    1.13e+00
2006 09 25  1415    54003   51300      0    1.61e+00    0    1.14e+00
2006 09 25  1420    54003   51600      0    1.62e+00    0    1.14e+00
2006 09 25  1425    54003   51900      0    1.64e+00    0    1.14e+00
2006 09 25  1430    54003   52200      0    1.64e+00    0    1.15e+00
2006 09 25  1435    54003   52500      0    1.65e+00    0    1.15e+00
2006 09 25  1440    54003   52800      0    1.64e+00    0    1.15e+00
2006 09 25  1445    54003   53100      0    1.64e+00    0    1.15e+00
2006 09 25  1450    54003   53400      0    1.65e+00    0    1.16e+00
2006 09 25  1455    54003   53700      0    1.67e+00    0    1.17e+00
2006 09 25  1500    54003   54000      0    1.61e+00    0    1.13e+00
2006 09 25  1505    54003   54300      0    1.65e+00    0    1.15e+00
2006 09 25  1510    54003   54600      0    1.69e+00    0    1.20e+00
2006 09 25  1515    54003   54900      0    1.65e+00    0    1.15e+00
2006 09 25  1520    54003   55200      0    1.61e+00    0    1.11e+00
2006 09 25  1525    54003   55500      0    1.63e+00    0    1.15e+00
2006 09 25  1530    54003   55800      0    1.64e+00    0    1.15e+00
2006 09 25  1535    54003   56100      0    1.64e+00    0    1.15e+00
2006 09 25  1540    54003   56400      0    1.61e+00    0    1.12e+00
2006 09 25  1545    54003   56700      0    1.68e+00    0    1.17e+00
2006 09 25  1550    54003   57000      0    1.65e+00    0    1.16e+00
2006 09 25  1555    54003   57300      0    1.69e+00    0    1.18e+00
2006 09 25  1600    54003   57600      0    1.65e+00    0    1.15e+00
2006 09 25  1605    54003   57900      0    1.63e+00    0    1.14e+00
2006 09 25  1610    54003   58200      0    1.62e+00    0    1.13e+00
2006 09 25  1615    54003   58500      0    1.67e+00    0    1.17e+00
2006 09 25  1620    54003   58800      0    1.62e+00    0    1.13e+00
2006 09 25  1625    54003   59100      0    1.65e+00    0    1.15e+00
2006 09 25  1630    54003   59400      0    1.61e+00    0    1.13e+00
2006 09 25  1635    54003   59700      0    1.64e+00    0    1.15e+00
2006 09 25  1640    54003   60000      0    1.66e+00    0    1.17e+00
2006 09 25  1645    54003   60300      0    1.65e+00    0    1.16e+00
2006 09 25  1650    54003   60600      9   -1.00e+05    9   -1.00e+05
2006 09 25  1655    54003   60900      9   -1.00e+05    9   -1.00e+05
2006 09 25  1700    54003   61200      9   -1.00e+05    9   -1.00e+05
2006 09 25  1705    54003   61500      0    1.68e+00    0    1.15e+00
2006 09 25  1710    54003   61800      0    1.63e+00    0    1.15e+00
2006 09 25  1715    54003   62100      0    1.69e+00    0    1.18e+00
2006 09 25  1720    54003   62400      0    1.64e+00    0    1.17e+00
2006 09 25  1725    54003   62700      0    1.67e+00    0    1.19e+00
2006 09 25  1730    54003   63000      9   -1.00e+05    9   -1.00e+05
2006 09 25  1735    54003   63300      9   -1.00e+05    9   -1.00e+05
2006 09 25  1740    54003   63600      9   -1.00e+05    9   -1.00e+05
2006 09 25  1745    54003   63900      9   -1.00e+05    9   -1.00e+05
2006 09 25  1750    54003   64200      9   -1.00e+05    9   -1.00e+05
2006 09 25  1755    54003   64500      9   -1.00e+05    9   -1.00e+05
2006 09 25  1800    54003   64800      9   -1.00e+05    9   -1.00e+05
2006 09 25  1805    54003   65100      0    1.64e+00    0    1.14e+00
2006 09 25  1810    54003   65400      0    1.63e+00    0    1.14e+00
2006 09 25  1815    54003   65700      0    1.62e+00    0    1.14e+00
2006 09 25  1820    54003   66000      0    1.64e+00    0    1.15e+00
2006 09 25  1825    54003   66300      0    1.66e+00    0    1.18e+00
2006 09 25  1830    54003   66600      0    1.65e+00    0    1.15e+00
2006 09 25  1835    54003   66900      0    1.63e+00    0    1.16e+00
2006 09 25  1840    54003   67200      0    1.59e+00    0    1.10e+00
2006 09 25  1845    54003   67500      0    1.62e+00    0    1.13e+00
2006 09 25  1850    54003   67800      0    1.65e+00    0    1.15e+00
2006 09 25  1855    54003   68100      0    1.68e+00    0    1.18e+00
2006 09 25  1900    54003   68400      0    1.64e+00    0    1.14e+00
2006 09 25  1905    54003   68700      0    1.62e+00    0    1.13e+00
2006 09 25  1910    54003   69000      0    1.63e+00    0    1.15e+00
2006 09 25  1915    54003   69300      0    1.65e+00    0    1.15e+00
2006 09 25  1920    54003   69600      0    1.65e+00    0    1.14e+00
2006 09 25  1925    54003   69900      0    1.64e+00    0    1.14e+00
2006 09 25  1930    54003   70200      0    1.66e+00    0    1.18e+00
2006 09 25  1935    54003   70500      0    1.63e+00    0    1.14e+00
2006 09 25  1940    54003   70800      0    1.63e+00    0    1.12e+00
2006 09 25  1945    54003   71100      0    1.68e+00    0    1.17e+00
2006 09 25  1950    54003   71400      0    1.64e+00    0    1.14e+00
2006 09 25  1955    54003   71700      0    1.62e+00    0    1.13e+00
2006 09 25  2000    54003   72000      0    1.63e+00    0    1.14e+00
2006 09 25  2005    54003   72300      0    1.64e+00    0    1.16e+00
2006 09 25  2010    54003   72600      0    1.62e+00    0    1.12e+00
2006 09 25  2015    54003   72900      0    1.65e+00    0    1.16e+00
2006 09 25  2020    54003   73200      0    1.64e+00    0    1.14e+00
2006 09 25  2025    54003   73500      0    1.67e+00    0    1.17e+00
2006 09 25  2030    54003   73800      0    1.63e+00    0    1.15e+00
2006 09 25  2035    54003   74100      0    1.63e+00    0    1.14e+00
2006 09 25  2040    54003   74400      0    1.59e+00    0    1.11e+00
2006 09 25  2045    54003   74700      0    1.63e+00    0    1.14e+00
2006 09 25  2050    54003   75000      0    1.64e+00    0    1.15e+00
2006 09 25  2055    54003   75300      0    1.64e+00    0    1.15e+00
2006 09 25  2100    54003   75600      0    1.63e+00    0    1.14e+00
2006 09 25  2105    54003   75900      0    1.64e+00    0    1.15e+00
2006 09 25  2110    54003   76200      0    1.66e+00    0    1.17e+00
2006 09 25  2115    54003   76500      0    1.62e+00    0    1.13e+00
2006 09 25  2120    54003   76800      0    1.65e+00    0    1.15e+00
2006 09 25  2125    54003   77100      0    1.65e+00    0    1.15e+00
2006 09 25  2130    54003   77400      0    1.61e+00    0    1.12e+00
2006 09 25  2135    54003   77700      0    1.68e+00    0    1.17e+00
2006 09 25  2140    54003   78000      0    1.62e+00    0    1.13e+00
2006 09 25  2145    54003   78300      0    1.63e+00    0    1.15e+00
2006 09 25  2150    54003   78600      0    1.64e+00    0    1.15e+00
2006 09 25  2155    54003   78900      0    1.65e+00    0    1.16e+00
2006 09 25  2200    54003   79200      0    1.61e+00    0    1.13e+00
2006 09 25  2205    54003   79500      0    1.65e+00    0    1.17e+00
2006 09 25  2210    54003   79800      0    1.66e+00    0    1.17e+00
2006 09 25  2215    54003   80100      9   -1.00e+05    9   -1.00e+05
2006 09 25  2220    54003   80400      9   -1.00e+05    9   -1.00e+05
2006 09 25  2225    54003   80700      9   -1.00e+05    9   -1.00e+05
2006 09 25  2230    54003   81000      9   -1.00e+05    9   -1.00e+05
2006 09 25  2235    54003   81300      9   -1.00e+05    9   -1.00e+05
2006 09 25  2240    54003   81600      9   -1.00e+05    9   -1.00e+05
2006 09 25  2245    54003   81900      0    1.63e+00    0    1.13e+00
2006 09 25  2250    54003   82200      0    1.64e+00    0    1.14e+00
2006 09 25  2255    54003   82500      0    1.66e+00    0    1.17e+00
2006 09 25  2300    54003   82800      0    1.63e+00    0    1.14e+00
2006 09 25  2305    54003   83100      0    1.64e+00    0    1.14e+00
2006 09 25  2310    54003   83400      0    1.64e+00    0    1.15e+00
2006 09 25  2315    54003   83700      0    1.65e+00    0    1.15e+00
2006 09 25  2320    54003   84000      0    1.61e+00    0    1.12e+00
2006 09 25  2325    54003   84300      0    1.64e+00    0    1.14e+00
2006 09 25  2330    54003   84600      0    1.65e+00    0    1.15e+00
2006 09 25  2335    54003   84900      0    1.66e+00    0    1.16e+00
2006 09 25  2340    54003   85200      0    1.67e+00    0    1.16e+00
2006 09 25  2345    54003   85500      0    1.61e+00    0    1.13e+00
2006 09 25  2350    54003   85800      0    1.66e+00    0    1.17e+00
2006 09 25  2355    54003   86100      0    1.66e+00    0    1.16e+00
