:Data_list: 20061116_ace_sis_5m.txt
:Created: 2006 Nov 17 0011 UT
# Prepared by the U.S. Dept. of Commerce, NOAA, Space Environment Center.
# Please send comments and suggestions to SEC.Webmaster@noaa.gov 
# 
# Units: proton flux p/cs2-sec-ster
# Status(S): 0 = nominal data, 1 to 8 = bad data record, 9 = no data
# Missing data values: -1.00e+05
# Source: ACE Satellite - Solar Isotope Spectrometer
#
# 5-minute averaged Real-time Integral Flux of High-energy Solar Protons
# 
#                 Modified Seconds
# UT Date   Time   Julian  of the      ---- Integral Proton Flux ----
# YR MO DA  HHMM     Day     Day       S    > 10 MeV    S    > 30 MeV
#--------------------------------------------------------------------
2006 11 16  0000    54055       0      0    1.67e+00    0    1.18e+00
2006 11 16  0005    54055     300      0    1.65e+00    0    1.16e+00
2006 11 16  0010    54055     600      0    1.66e+00    0    1.17e+00
2006 11 16  0015    54055     900      0    1.69e+00    0    1.18e+00
2006 11 16  0020    54055    1200      0    1.67e+00    0    1.16e+00
2006 11 16  0025    54055    1500      0    1.67e+00    0    1.17e+00
2006 11 16  0030    54055    1800      0    1.69e+00    0    1.18e+00
2006 11 16  0035    54055    2100      0    1.70e+00    0    1.19e+00
2006 11 16  0040    54055    2400      0    1.74e+00    0    1.23e+00
2006 11 16  0045    54055    2700      0    1.66e+00    0    1.16e+00
2006 11 16  0050    54055    3000      0    1.69e+00    0    1.20e+00
2006 11 16  0055    54055    3300      0    1.66e+00    0    1.17e+00
2006 11 16  0100    54055    3600      0    1.68e+00    0    1.18e+00
2006 11 16  0105    54055    3900      0    1.65e+00    0    1.15e+00
2006 11 16  0110    54055    4200      0    1.65e+00    0    1.16e+00
2006 11 16  0115    54055    4500      0    1.67e+00    0    1.17e+00
2006 11 16  0120    54055    4800      0    1.71e+00    0    1.20e+00
2006 11 16  0125    54055    5100      0    1.65e+00    0    1.17e+00
2006 11 16  0130    54055    5400      0    1.66e+00    0    1.16e+00
2006 11 16  0135    54055    5700      0    1.66e+00    0    1.16e+00
2006 11 16  0140    54055    6000      0    1.69e+00    0    1.18e+00
2006 11 16  0145    54055    6300      0    1.69e+00    0    1.18e+00
2006 11 16  0150    54055    6600      0    1.65e+00    0    1.16e+00
2006 11 16  0155    54055    6900      0    1.63e+00    0    1.14e+00
2006 11 16  0200    54055    7200      0    1.66e+00    0    1.15e+00
2006 11 16  0205    54055    7500      0    1.67e+00    0    1.17e+00
2006 11 16  0210    54055    7800      0    1.69e+00    0    1.18e+00
2006 11 16  0215    54055    8100      0    1.68e+00    0    1.18e+00
2006 11 16  0220    54055    8400      0    1.66e+00    0    1.16e+00
2006 11 16  0225    54055    8700      0    1.70e+00    0    1.19e+00
2006 11 16  0230    54055    9000      0    1.65e+00    0    1.15e+00
2006 11 16  0235    54055    9300      0    1.72e+00    0    1.20e+00
2006 11 16  0240    54055    9600      0    1.69e+00    0    1.18e+00
2006 11 16  0245    54055    9900      0    1.71e+00    0    1.20e+00
2006 11 16  0250    54055   10200      0    1.68e+00    0    1.18e+00
2006 11 16  0255    54055   10500      0    1.70e+00    0    1.19e+00
2006 11 16  0300    54055   10800      0    1.66e+00    0    1.16e+00
2006 11 16  0305    54055   11100      0    1.66e+00    0    1.16e+00
2006 11 16  0310    54055   11400      0    1.65e+00    0    1.15e+00
2006 11 16  0315    54055   11700      0    1.68e+00    0    1.17e+00
2006 11 16  0320    54055   12000      0    1.60e+00    0    1.14e+00
2006 11 16  0325    54055   12300      0    1.65e+00    0    1.16e+00
2006 11 16  0330    54055   12600      0    1.66e+00    0    1.17e+00
2006 11 16  0335    54055   12900      0    1.68e+00    0    1.19e+00
2006 11 16  0340    54055   13200      0    1.66e+00    0    1.16e+00
2006 11 16  0345    54055   13500      0    1.68e+00    0    1.18e+00
2006 11 16  0350    54055   13800      0    1.69e+00    0    1.19e+00
2006 11 16  0355    54055   14100      0    1.69e+00    0    1.18e+00
2006 11 16  0400    54055   14400      0    1.71e+00    0    1.19e+00
2006 11 16  0405    54055   14700      0    1.68e+00    0    1.17e+00
2006 11 16  0410    54055   15000      0    1.64e+00    0    1.15e+00
2006 11 16  0415    54055   15300      0    1.67e+00    0    1.16e+00
2006 11 16  0420    54055   15600      0    1.67e+00    0    1.17e+00
2006 11 16  0425    54055   15900      0    1.69e+00    0    1.19e+00
2006 11 16  0430    54055   16200      0    1.70e+00    0    1.18e+00
2006 11 16  0435    54055   16500      0    1.67e+00    0    1.17e+00
2006 11 16  0440    54055   16800      0    1.67e+00    0    1.16e+00
2006 11 16  0445    54055   17100      0    1.64e+00    0    1.16e+00
2006 11 16  0450    54055   17400      0    1.66e+00    0    1.17e+00
2006 11 16  0455    54055   17700      0    1.68e+00    0    1.18e+00
2006 11 16  0500    54055   18000      0    1.72e+00    0    1.22e+00
2006 11 16  0505    54055   18300      0    1.67e+00    0    1.18e+00
2006 11 16  0510    54055   18600      0    1.70e+00    0    1.20e+00
2006 11 16  0515    54055   18900      0    1.68e+00    0    1.17e+00
2006 11 16  0520    54055   19200      0    1.67e+00    0    1.16e+00
2006 11 16  0525    54055   19500      0    1.71e+00    0    1.19e+00
2006 11 16  0530    54055   19800      0    1.68e+00    0    1.17e+00
2006 11 16  0535    54055   20100      0    1.64e+00    0    1.16e+00
2006 11 16  0540    54055   20400      0    1.74e+00    0    1.22e+00
2006 11 16  0545    54055   20700      0    1.69e+00    0    1.18e+00
2006 11 16  0550    54055   21000      0    1.67e+00    0    1.17e+00
2006 11 16  0555    54055   21300      0    1.71e+00    0    1.20e+00
2006 11 16  0600    54055   21600      0    1.65e+00    0    1.15e+00
2006 11 16  0605    54055   21900      0    1.67e+00    0    1.18e+00
2006 11 16  0610    54055   22200      0    1.68e+00    0    1.19e+00
2006 11 16  0615    54055   22500      0    1.69e+00    0    1.18e+00
2006 11 16  0620    54055   22800      0    1.68e+00    0    1.18e+00
2006 11 16  0625    54055   23100      0    1.67e+00    0    1.17e+00
2006 11 16  0630    54055   23400      0    1.63e+00    0    1.13e+00
2006 11 16  0635    54055   23700      0    1.64e+00    0    1.15e+00
2006 11 16  0640    54055   24000      0    1.66e+00    0    1.16e+00
2006 11 16  0645    54055   24300      0    1.66e+00    0    1.16e+00
2006 11 16  0650    54055   24600      0    1.66e+00    0    1.16e+00
2006 11 16  0655    54055   24900      0    1.60e+00    0    1.11e+00
2006 11 16  0700    54055   25200      0    1.63e+00    0    1.13e+00
2006 11 16  0705    54055   25500      0    1.64e+00    0    1.16e+00
2006 11 16  0710    54055   25800      0    1.66e+00    0    1.16e+00
2006 11 16  0715    54055   26100      0    1.65e+00    0    1.15e+00
2006 11 16  0720    54055   26400      0    1.66e+00    0    1.16e+00
2006 11 16  0725    54055   26700      0    1.69e+00    0    1.18e+00
2006 11 16  0730    54055   27000      0    1.64e+00    0    1.14e+00
2006 11 16  0735    54055   27300      0    1.65e+00    0    1.16e+00
2006 11 16  0740    54055   27600      0    1.67e+00    0    1.17e+00
2006 11 16  0745    54055   27900      0    1.65e+00    0    1.16e+00
2006 11 16  0750    54055   28200      0    1.64e+00    0    1.14e+00
2006 11 16  0755    54055   28500      0    1.64e+00    0    1.15e+00
2006 11 16  0800    54055   28800      0    1.67e+00    0    1.18e+00
2006 11 16  0805    54055   29100      0    1.67e+00    0    1.18e+00
2006 11 16  0810    54055   29400      0    1.65e+00    0    1.16e+00
2006 11 16  0815    54055   29700      0    1.65e+00    0    1.17e+00
2006 11 16  0820    54055   30000      0    1.67e+00    0    1.17e+00
2006 11 16  0825    54055   30300      0    1.68e+00    0    1.18e+00
2006 11 16  0830    54055   30600      0    1.65e+00    0    1.16e+00
2006 11 16  0835    54055   30900      0    1.67e+00    0    1.17e+00
2006 11 16  0840    54055   31200      0    1.67e+00    0    1.18e+00
2006 11 16  0845    54055   31500      0    1.69e+00    0    1.19e+00
2006 11 16  0850    54055   31800      0    1.65e+00    0    1.15e+00
2006 11 16  0855    54055   32100      0    1.68e+00    0    1.18e+00
2006 11 16  0900    54055   32400      0    1.66e+00    0    1.16e+00
2006 11 16  0905    54055   32700      0    1.65e+00    0    1.16e+00
2006 11 16  0910    54055   33000      0    1.65e+00    0    1.16e+00
2006 11 16  0915    54055   33300      0    1.66e+00    0    1.17e+00
2006 11 16  0920    54055   33600      0    1.67e+00    0    1.18e+00
2006 11 16  0925    54055   33900      0    1.68e+00    0    1.18e+00
2006 11 16  0930    54055   34200      0    1.66e+00    0    1.16e+00
2006 11 16  0935    54055   34500      0    1.69e+00    0    1.18e+00
2006 11 16  0940    54055   34800      0    1.62e+00    0    1.13e+00
2006 11 16  0945    54055   35100      0    1.65e+00    0    1.17e+00
2006 11 16  0950    54055   35400      0    1.66e+00    0    1.16e+00
2006 11 16  0955    54055   35700      0    1.65e+00    0    1.14e+00
2006 11 16  1000    54055   36000      0    1.66e+00    0    1.18e+00
2006 11 16  1005    54055   36300      0    1.66e+00    0    1.17e+00
2006 11 16  1010    54055   36600      0    1.67e+00    0    1.18e+00
2006 11 16  1015    54055   36900      0    1.66e+00    0    1.16e+00
2006 11 16  1020    54055   37200      0    1.72e+00    0    1.21e+00
2006 11 16  1025    54055   37500      0    1.65e+00    0    1.16e+00
2006 11 16  1030    54055   37800      0    1.66e+00    0    1.17e+00
2006 11 16  1035    54055   38100      0    1.67e+00    0    1.17e+00
2006 11 16  1040    54055   38400      0    1.70e+00    0    1.19e+00
2006 11 16  1045    54055   38700      0    1.67e+00    0    1.18e+00
2006 11 16  1050    54055   39000      0    1.68e+00    0    1.18e+00
2006 11 16  1055    54055   39300      0    1.66e+00    0    1.16e+00
2006 11 16  1100    54055   39600      0    1.68e+00    0    1.16e+00
2006 11 16  1105    54055   39900      0    1.68e+00    0    1.18e+00
2006 11 16  1110    54055   40200      0    1.66e+00    0    1.16e+00
2006 11 16  1115    54055   40500      0    1.68e+00    0    1.19e+00
2006 11 16  1120    54055   40800      0    1.66e+00    0    1.17e+00
2006 11 16  1125    54055   41100      0    1.67e+00    0    1.16e+00
2006 11 16  1130    54055   41400      0    1.69e+00    0    1.18e+00
2006 11 16  1135    54055   41700      0    1.67e+00    0    1.18e+00
2006 11 16  1140    54055   42000      0    1.65e+00    0    1.16e+00
2006 11 16  1145    54055   42300      0    1.70e+00    0    1.18e+00
2006 11 16  1150    54055   42600      0    1.68e+00    0    1.18e+00
2006 11 16  1155    54055   42900      0    1.71e+00    0    1.19e+00
2006 11 16  1200    54055   43200      0    1.64e+00    0    1.14e+00
2006 11 16  1205    54055   43500      0    1.63e+00    0    1.14e+00
2006 11 16  1210    54055   43800      0    1.65e+00    0    1.16e+00
2006 11 16  1215    54055   44100      0    1.69e+00    0    1.19e+00
2006 11 16  1220    54055   44400      0    1.67e+00    0    1.16e+00
2006 11 16  1225    54055   44700      0    1.69e+00    0    1.21e+00
2006 11 16  1230    54055   45000      0    1.65e+00    0    1.15e+00
2006 11 16  1235    54055   45300      0    1.69e+00    0    1.18e+00
2006 11 16  1240    54055   45600      0    1.67e+00    0    1.17e+00
2006 11 16  1245    54055   45900      0    1.65e+00    0    1.16e+00
2006 11 16  1250    54055   46200      0    1.70e+00    0    1.20e+00
2006 11 16  1255    54055   46500      0    1.67e+00    0    1.15e+00
2006 11 16  1300    54055   46800      0    1.66e+00    0    1.16e+00
2006 11 16  1305    54055   47100      0    1.65e+00    0    1.16e+00
2006 11 16  1310    54055   47400      0    1.66e+00    0    1.17e+00
2006 11 16  1315    54055   47700      0    1.68e+00    0    1.18e+00
2006 11 16  1320    54055   48000      0    1.69e+00    0    1.19e+00
2006 11 16  1325    54055   48300      0    1.68e+00    0    1.18e+00
2006 11 16  1330    54055   48600      0    1.67e+00    0    1.18e+00
2006 11 16  1335    54055   48900      0    1.67e+00    0    1.16e+00
2006 11 16  1340    54055   49200      0    1.69e+00    0    1.19e+00
2006 11 16  1345    54055   49500      0    1.66e+00    0    1.16e+00
2006 11 16  1350    54055   49800      0    1.70e+00    0    1.19e+00
2006 11 16  1355    54055   50100      0    1.67e+00    0    1.16e+00
2006 11 16  1400    54055   50400      0    1.69e+00    0    1.16e+00
2006 11 16  1405    54055   50700      0    1.66e+00    0    1.17e+00
2006 11 16  1410    54055   51000      0    1.67e+00    0    1.17e+00
2006 11 16  1415    54055   51300      0    1.67e+00    0    1.16e+00
2006 11 16  1420    54055   51600      0    1.69e+00    0    1.20e+00
2006 11 16  1425    54055   51900      0    1.68e+00    0    1.18e+00
2006 11 16  1430    54055   52200      0    1.72e+00    0    1.21e+00
2006 11 16  1435    54055   52500      0    1.62e+00    0    1.14e+00
2006 11 16  1440    54055   52800      0    1.71e+00    0    1.22e+00
2006 11 16  1445    54055   53100      0    1.69e+00    0    1.17e+00
2006 11 16  1450    54055   53400      0    1.71e+00    0    1.21e+00
2006 11 16  1455    54055   53700      0    1.70e+00    0    1.20e+00
2006 11 16  1500    54055   54000      0    1.71e+00    0    1.20e+00
2006 11 16  1505    54055   54300      0    1.71e+00    0    1.21e+00
2006 11 16  1510    54055   54600      0    1.69e+00    0    1.17e+00
2006 11 16  1515    54055   54900      0    1.63e+00    0    1.14e+00
2006 11 16  1520    54055   55200      0    1.68e+00    0    1.18e+00
2006 11 16  1525    54055   55500      0    1.71e+00    0    1.20e+00
2006 11 16  1530    54055   55800      0    1.65e+00    0    1.15e+00
2006 11 16  1535    54055   56100      0    1.65e+00    0    1.16e+00
2006 11 16  1540    54055   56400      0    1.68e+00    0    1.18e+00
2006 11 16  1545    54055   56700      0    1.67e+00    0    1.19e+00
2006 11 16  1550    54055   57000      0    1.68e+00    0    1.18e+00
2006 11 16  1555    54055   57300      0    1.68e+00    0    1.18e+00
2006 11 16  1600    54055   57600      0    1.73e+00    0    1.20e+00
2006 11 16  1605    54055   57900      0    1.68e+00    0    1.18e+00
2006 11 16  1610    54055   58200      0    1.69e+00    0    1.19e+00
2006 11 16  1615    54055   58500      0    1.70e+00    0    1.19e+00
2006 11 16  1620    54055   58800      0    1.69e+00    0    1.19e+00
2006 11 16  1625    54055   59100      0    1.69e+00    0    1.18e+00
2006 11 16  1630    54055   59400      0    1.69e+00    0    1.19e+00
2006 11 16  1635    54055   59700      0    1.66e+00    0    1.15e+00
2006 11 16  1640    54055   60000      0    1.68e+00    0    1.18e+00
2006 11 16  1645    54055   60300      0    1.68e+00    0    1.18e+00
2006 11 16  1650    54055   60600      0    1.66e+00    0    1.16e+00
2006 11 16  1655    54055   60900      0    1.69e+00    0    1.18e+00
2006 11 16  1700    54055   61200      0    1.73e+00    0    1.20e+00
2006 11 16  1705    54055   61500      0    1.67e+00    0    1.16e+00
2006 11 16  1710    54055   61800      0    1.69e+00    0    1.19e+00
2006 11 16  1715    54055   62100      0    1.69e+00    0    1.19e+00
2006 11 16  1720    54055   62400      0    1.66e+00    0    1.16e+00
2006 11 16  1725    54055   62700      0    1.69e+00    0    1.18e+00
2006 11 16  1730    54055   63000      0    1.67e+00    0    1.17e+00
2006 11 16  1735    54055   63300      0    1.67e+00    0    1.17e+00
2006 11 16  1740    54055   63600      0    1.70e+00    0    1.19e+00
2006 11 16  1745    54055   63900      0    1.68e+00    0    1.18e+00
2006 11 16  1750    54055   64200      0    1.74e+00    0    1.22e+00
2006 11 16  1755    54055   64500      0    1.67e+00    0    1.17e+00
2006 11 16  1800    54055   64800      0    1.67e+00    0    1.19e+00
2006 11 16  1805    54055   65100      0    1.64e+00    0    1.16e+00
2006 11 16  1810    54055   65400      0    1.67e+00    0    1.16e+00
2006 11 16  1815    54055   65700      0    1.71e+00    0    1.21e+00
2006 11 16  1820    54055   66000      0    1.63e+00    0    1.14e+00
2006 11 16  1825    54055   66300      0    1.69e+00    0    1.19e+00
2006 11 16  1830    54055   66600      0    1.67e+00    0    1.17e+00
2006 11 16  1835    54055   66900      0    1.65e+00    0    1.16e+00
2006 11 16  1840    54055   67200      0    1.73e+00    0    1.21e+00
2006 11 16  1845    54055   67500      0    1.71e+00    0    1.19e+00
2006 11 16  1850    54055   67800      0    1.65e+00    0    1.15e+00
2006 11 16  1855    54055   68100      0    1.68e+00    0    1.19e+00
2006 11 16  1900    54055   68400      0    1.72e+00    0    1.22e+00
2006 11 16  1905    54055   68700      0    1.68e+00    0    1.19e+00
2006 11 16  1910    54055   69000      0    1.66e+00    0    1.17e+00
2006 11 16  1915    54055   69300      0    1.74e+00    0    1.21e+00
2006 11 16  1920    54055   69600      0    1.67e+00    0    1.17e+00
2006 11 16  1925    54055   69900      0    1.70e+00    0    1.19e+00
2006 11 16  1930    54055   70200      0    1.67e+00    0    1.16e+00
2006 11 16  1935    54055   70500      0    1.69e+00    0    1.18e+00
2006 11 16  1940    54055   70800      0    1.70e+00    0    1.19e+00
2006 11 16  1945    54055   71100      0    1.69e+00    0    1.19e+00
2006 11 16  1950    54055   71400      0    1.67e+00    0    1.17e+00
2006 11 16  1955    54055   71700      0    1.71e+00    0    1.21e+00
2006 11 16  2000    54055   72000      0    1.65e+00    0    1.15e+00
2006 11 16  2005    54055   72300      0    1.66e+00    0    1.16e+00
2006 11 16  2010    54055   72600      0    1.68e+00    0    1.18e+00
2006 11 16  2015    54055   72900      0    1.63e+00    0    1.14e+00
2006 11 16  2020    54055   73200      0    1.69e+00    0    1.17e+00
2006 11 16  2025    54055   73500      0    1.66e+00    0    1.16e+00
2006 11 16  2030    54055   73800      0    1.65e+00    0    1.15e+00
2006 11 16  2035    54055   74100      0    1.66e+00    0    1.17e+00
2006 11 16  2040    54055   74400      0    1.64e+00    0    1.15e+00
2006 11 16  2045    54055   74700      0    1.68e+00    0    1.17e+00
2006 11 16  2050    54055   75000      9   -1.00e+05    9   -1.00e+05
2006 11 16  2055    54055   75300      9   -1.00e+05    9   -1.00e+05
2006 11 16  2100    54055   75600      9   -1.00e+05    9   -1.00e+05
2006 11 16  2105    54055   75900      9   -1.00e+05    9   -1.00e+05
2006 11 16  2110    54055   76200      9   -1.00e+05    9   -1.00e+05
2006 11 16  2115    54055   76500      9   -1.00e+05    9   -1.00e+05
2006 11 16  2120    54055   76800      9   -1.00e+05    9   -1.00e+05
2006 11 16  2125    54055   77100      9   -1.00e+05    9   -1.00e+05
2006 11 16  2130    54055   77400      9   -1.00e+05    9   -1.00e+05
2006 11 16  2135    54055   77700      9   -1.00e+05    9   -1.00e+05
2006 11 16  2140    54055   78000      9   -1.00e+05    9   -1.00e+05
2006 11 16  2145    54055   78300      9   -1.00e+05    9   -1.00e+05
2006 11 16  2150    54055   78600      9   -1.00e+05    9   -1.00e+05
2006 11 16  2155    54055   78900      9   -1.00e+05    9   -1.00e+05
2006 11 16  2200    54055   79200      0    1.66e+00    0    1.17e+00
2006 11 16  2205    54055   79500      0    1.64e+00    0    1.15e+00
2006 11 16  2210    54055   79800      0    1.67e+00    0    1.17e+00
2006 11 16  2215    54055   80100      0    1.66e+00    0    1.16e+00
2006 11 16  2220    54055   80400      0    1.65e+00    0    1.16e+00
2006 11 16  2225    54055   80700      0    1.68e+00    0    1.18e+00
2006 11 16  2230    54055   81000      0    1.66e+00    0    1.16e+00
2006 11 16  2235    54055   81300      0    1.66e+00    0    1.18e+00
2006 11 16  2240    54055   81600      0    1.62e+00    0    1.13e+00
2006 11 16  2245    54055   81900      0    1.69e+00    0    1.19e+00
2006 11 16  2250    54055   82200      0    1.67e+00    0    1.18e+00
2006 11 16  2255    54055   82500      0    1.65e+00    0    1.16e+00
2006 11 16  2300    54055   82800      0    1.69e+00    0    1.19e+00
2006 11 16  2305    54055   83100      0    1.64e+00    0    1.15e+00
2006 11 16  2310    54055   83400      0    1.65e+00    0    1.16e+00
2006 11 16  2315    54055   83700      0    1.68e+00    0    1.18e+00
2006 11 16  2320    54055   84000      0    1.69e+00    0    1.20e+00
2006 11 16  2325    54055   84300      0    1.67e+00    0    1.18e+00
2006 11 16  2330    54055   84600      0    1.66e+00    0    1.17e+00
2006 11 16  2335    54055   84900      0    1.65e+00    0    1.14e+00
2006 11 16  2340    54055   85200      0    1.68e+00    0    1.18e+00
2006 11 16  2345    54055   85500      0    1.64e+00    0    1.15e+00
2006 11 16  2350    54055   85800      0    1.70e+00    0    1.20e+00
2006 11 16  2355    54055   86100      0    1.68e+00    0    1.19e+00
