:Data_list: 20070210_ace_sis_5m.txt
:Created: 2007 Feb 11 0011 UT
# Prepared by the U.S. Dept. of Commerce, NOAA, Space Environment Center.
# Please send comments and suggestions to SEC.Webmaster@noaa.gov 
# 
# Units: proton flux p/cs2-sec-ster
# Status(S): 0 = nominal data, 1 to 8 = bad data record, 9 = no data
# Missing data values: -1.00e+05
# Source: ACE Satellite - Solar Isotope Spectrometer
#
# 5-minute averaged Real-time Integral Flux of High-energy Solar Protons
# 
#                 Modified Seconds
# UT Date   Time   Julian  of the      ---- Integral Proton Flux ----
# YR MO DA  HHMM     Day     Day       S    > 10 MeV    S    > 30 MeV
#--------------------------------------------------------------------
2007 02 10  0000    54141       0      0    1.71e+00    0    1.20e+00
2007 02 10  0005    54141     300      0    1.77e+00    0    1.25e+00
2007 02 10  0010    54141     600      0    1.72e+00    0    1.21e+00
2007 02 10  0015    54141     900      0    1.77e+00    0    1.25e+00
2007 02 10  0020    54141    1200      0    1.72e+00    0    1.21e+00
2007 02 10  0025    54141    1500      0    1.77e+00    0    1.24e+00
2007 02 10  0030    54141    1800      0    1.76e+00    0    1.24e+00
2007 02 10  0035    54141    2100      9   -1.00e+05    9   -1.00e+05
2007 02 10  0040    54141    2400      0    1.75e+00    0    1.20e+00
2007 02 10  0045    54141    2700      0    1.74e+00    0    1.22e+00
2007 02 10  0050    54141    3000      0    1.78e+00    0    1.25e+00
2007 02 10  0055    54141    3300      0    1.75e+00    0    1.21e+00
2007 02 10  0100    54141    3600      0    1.75e+00    0    1.22e+00
2007 02 10  0105    54141    3900      0    1.73e+00    0    1.22e+00
2007 02 10  0110    54141    4200      0    1.75e+00    0    1.22e+00
2007 02 10  0115    54141    4500      0    1.77e+00    0    1.25e+00
2007 02 10  0120    54141    4800      0    1.71e+00    0    1.19e+00
2007 02 10  0125    54141    5100      0    1.73e+00    0    1.22e+00
2007 02 10  0130    54141    5400      0    1.70e+00    0    1.20e+00
2007 02 10  0135    54141    5700      0    1.76e+00    0    1.24e+00
2007 02 10  0140    54141    6000      0    1.73e+00    0    1.22e+00
2007 02 10  0145    54141    6300      0    1.75e+00    0    1.23e+00
2007 02 10  0150    54141    6600      0    1.75e+00    0    1.22e+00
2007 02 10  0155    54141    6900      0    1.74e+00    0    1.23e+00
2007 02 10  0200    54141    7200      0    1.76e+00    0    1.24e+00
2007 02 10  0205    54141    7500      0    1.73e+00    0    1.23e+00
2007 02 10  0210    54141    7800      0    1.76e+00    0    1.23e+00
2007 02 10  0215    54141    8100      0    1.72e+00    0    1.20e+00
2007 02 10  0220    54141    8400      0    1.74e+00    0    1.21e+00
2007 02 10  0225    54141    8700      0    1.74e+00    0    1.22e+00
2007 02 10  0230    54141    9000      0    1.71e+00    0    1.20e+00
2007 02 10  0235    54141    9300      0    1.77e+00    0    1.24e+00
2007 02 10  0240    54141    9600      0    1.77e+00    0    1.24e+00
2007 02 10  0245    54141    9900      0    1.76e+00    0    1.23e+00
2007 02 10  0250    54141   10200      0    1.78e+00    0    1.24e+00
2007 02 10  0255    54141   10500      0    1.75e+00    0    1.22e+00
2007 02 10  0300    54141   10800      0    1.77e+00    0    1.24e+00
2007 02 10  0305    54141   11100      0    1.77e+00    0    1.26e+00
2007 02 10  0310    54141   11400      0    1.76e+00    0    1.23e+00
2007 02 10  0315    54141   11700      0    1.76e+00    0    1.23e+00
2007 02 10  0320    54141   12000      0    1.71e+00    0    1.20e+00
2007 02 10  0325    54141   12300      0    1.76e+00    0    1.23e+00
2007 02 10  0330    54141   12600      0    1.79e+00    0    1.25e+00
2007 02 10  0335    54141   12900      0    1.79e+00    0    1.26e+00
2007 02 10  0340    54141   13200      0    1.74e+00    0    1.22e+00
2007 02 10  0345    54141   13500      0    1.75e+00    0    1.23e+00
2007 02 10  0350    54141   13800      0    1.78e+00    0    1.24e+00
2007 02 10  0355    54141   14100      0    1.77e+00    0    1.24e+00
2007 02 10  0400    54141   14400      0    1.78e+00    0    1.26e+00
2007 02 10  0405    54141   14700      0    1.78e+00    0    1.25e+00
2007 02 10  0410    54141   15000      0    1.76e+00    0    1.23e+00
2007 02 10  0415    54141   15300      0    1.75e+00    0    1.22e+00
2007 02 10  0420    54141   15600      0    1.76e+00    0    1.25e+00
2007 02 10  0425    54141   15900      0    1.79e+00    0    1.24e+00
2007 02 10  0430    54141   16200      0    1.79e+00    0    1.25e+00
2007 02 10  0435    54141   16500      0    1.74e+00    0    1.22e+00
2007 02 10  0440    54141   16800      0    1.77e+00    0    1.24e+00
2007 02 10  0445    54141   17100      0    1.76e+00    0    1.23e+00
2007 02 10  0450    54141   17400      0    1.74e+00    0    1.21e+00
2007 02 10  0455    54141   17700      0    1.76e+00    0    1.23e+00
2007 02 10  0500    54141   18000      0    1.73e+00    0    1.20e+00
2007 02 10  0505    54141   18300      0    1.74e+00    0    1.21e+00
2007 02 10  0510    54141   18600      0    1.73e+00    0    1.21e+00
2007 02 10  0515    54141   18900      0    1.77e+00    0    1.25e+00
2007 02 10  0520    54141   19200      0    1.80e+00    0    1.26e+00
2007 02 10  0525    54141   19500      0    1.75e+00    0    1.22e+00
2007 02 10  0530    54141   19800      0    1.77e+00    0    1.25e+00
2007 02 10  0535    54141   20100      0    1.80e+00    0    1.27e+00
2007 02 10  0540    54141   20400      0    1.77e+00    0    1.26e+00
2007 02 10  0545    54141   20700      0    1.75e+00    0    1.23e+00
2007 02 10  0550    54141   21000      0    1.79e+00    0    1.25e+00
2007 02 10  0555    54141   21300      0    1.76e+00    0    1.25e+00
2007 02 10  0600    54141   21600      0    1.76e+00    0    1.23e+00
2007 02 10  0605    54141   21900      0    1.72e+00    0    1.22e+00
2007 02 10  0610    54141   22200      0    1.74e+00    0    1.22e+00
2007 02 10  0615    54141   22500      0    1.75e+00    0    1.23e+00
2007 02 10  0620    54141   22800      0    1.75e+00    0    1.23e+00
2007 02 10  0625    54141   23100      0    1.72e+00    0    1.21e+00
2007 02 10  0630    54141   23400      0    1.74e+00    0    1.21e+00
2007 02 10  0635    54141   23700      0    1.74e+00    0    1.22e+00
2007 02 10  0640    54141   24000      0    1.74e+00    0    1.22e+00
2007 02 10  0645    54141   24300      0    1.73e+00    0    1.22e+00
2007 02 10  0650    54141   24600      0    1.68e+00    0    1.17e+00
2007 02 10  0655    54141   24900      0    1.77e+00    0    1.24e+00
2007 02 10  0700    54141   25200      0    1.71e+00    0    1.18e+00
2007 02 10  0705    54141   25500      0    1.76e+00    0    1.22e+00
2007 02 10  0710    54141   25800      0    1.72e+00    0    1.21e+00
2007 02 10  0715    54141   26100      0    1.72e+00    0    1.22e+00
2007 02 10  0720    54141   26400      0    1.74e+00    0    1.21e+00
2007 02 10  0725    54141   26700      0    1.78e+00    0    1.25e+00
2007 02 10  0730    54141   27000      0    1.73e+00    0    1.21e+00
2007 02 10  0735    54141   27300      0    1.74e+00    0    1.22e+00
2007 02 10  0740    54141   27600      0    1.71e+00    0    1.20e+00
2007 02 10  0745    54141   27900      0    1.76e+00    0    1.24e+00
2007 02 10  0750    54141   28200      0    1.71e+00    0    1.19e+00
2007 02 10  0755    54141   28500      0    1.74e+00    0    1.21e+00
2007 02 10  0800    54141   28800      0    1.74e+00    0    1.23e+00
2007 02 10  0805    54141   29100      0    1.77e+00    0    1.24e+00
2007 02 10  0810    54141   29400      0    1.74e+00    0    1.22e+00
2007 02 10  0815    54141   29700      0    1.74e+00    0    1.21e+00
2007 02 10  0820    54141   30000      0    1.72e+00    0    1.20e+00
2007 02 10  0825    54141   30300      0    1.75e+00    0    1.22e+00
2007 02 10  0830    54141   30600      0    1.73e+00    0    1.20e+00
2007 02 10  0835    54141   30900      0    1.72e+00    0    1.20e+00
2007 02 10  0840    54141   31200      0    1.75e+00    0    1.21e+00
2007 02 10  0845    54141   31500      0    1.76e+00    0    1.23e+00
2007 02 10  0850    54141   31800      0    1.77e+00    0    1.25e+00
2007 02 10  0855    54141   32100      0    1.76e+00    0    1.24e+00
2007 02 10  0900    54141   32400      0    1.74e+00    0    1.23e+00
2007 02 10  0905    54141   32700      0    1.76e+00    0    1.23e+00
2007 02 10  0910    54141   33000      0    1.76e+00    0    1.24e+00
2007 02 10  0915    54141   33300      0    1.73e+00    0    1.20e+00
2007 02 10  0920    54141   33600      0    1.76e+00    0    1.24e+00
2007 02 10  0925    54141   33900      0    1.73e+00    0    1.21e+00
2007 02 10  0930    54141   34200      0    1.72e+00    0    1.21e+00
2007 02 10  0935    54141   34500      0    1.72e+00    0    1.20e+00
2007 02 10  0940    54141   34800      0    1.80e+00    0    1.27e+00
2007 02 10  0945    54141   35100      0    1.75e+00    0    1.24e+00
2007 02 10  0950    54141   35400      0    1.77e+00    0    1.24e+00
2007 02 10  0955    54141   35700      0    1.80e+00    0    1.26e+00
2007 02 10  1000    54141   36000      0    1.76e+00    0    1.24e+00
2007 02 10  1005    54141   36300      0    1.73e+00    0    1.21e+00
2007 02 10  1010    54141   36600      0    1.76e+00    0    1.23e+00
2007 02 10  1015    54141   36900      0    1.73e+00    0    1.20e+00
2007 02 10  1020    54141   37200      0    1.77e+00    0    1.25e+00
2007 02 10  1025    54141   37500      0    1.77e+00    0    1.24e+00
2007 02 10  1030    54141   37800      0    1.76e+00    0    1.23e+00
2007 02 10  1035    54141   38100      0    1.75e+00    0    1.21e+00
2007 02 10  1040    54141   38400      0    1.75e+00    0    1.22e+00
2007 02 10  1045    54141   38700      0    1.72e+00    0    1.19e+00
2007 02 10  1050    54141   39000      0    1.72e+00    0    1.20e+00
2007 02 10  1055    54141   39300      0    1.74e+00    0    1.22e+00
2007 02 10  1100    54141   39600      0    1.76e+00    0    1.23e+00
2007 02 10  1105    54141   39900      0    1.75e+00    0    1.22e+00
2007 02 10  1110    54141   40200      0    1.73e+00    0    1.22e+00
2007 02 10  1115    54141   40500      0    1.74e+00    0    1.22e+00
2007 02 10  1120    54141   40800      0    1.79e+00    0    1.26e+00
2007 02 10  1125    54141   41100      0    1.75e+00    0    1.23e+00
2007 02 10  1130    54141   41400      0    1.73e+00    0    1.21e+00
2007 02 10  1135    54141   41700      0    1.75e+00    0    1.23e+00
2007 02 10  1140    54141   42000      0    1.74e+00    0    1.22e+00
2007 02 10  1145    54141   42300      0    1.74e+00    0    1.23e+00
2007 02 10  1150    54141   42600      0    1.74e+00    0    1.21e+00
2007 02 10  1155    54141   42900      0    1.76e+00    0    1.23e+00
2007 02 10  1200    54141   43200      0    1.74e+00    0    1.22e+00
2007 02 10  1205    54141   43500      0    1.77e+00    0    1.24e+00
2007 02 10  1210    54141   43800      0    1.73e+00    0    1.21e+00
2007 02 10  1215    54141   44100      0    1.75e+00    0    1.24e+00
2007 02 10  1220    54141   44400      0    1.73e+00    0    1.21e+00
2007 02 10  1225    54141   44700      0    1.76e+00    0    1.24e+00
2007 02 10  1230    54141   45000      0    1.73e+00    0    1.22e+00
2007 02 10  1235    54141   45300      0    1.74e+00    0    1.21e+00
2007 02 10  1240    54141   45600      0    1.76e+00    0    1.23e+00
2007 02 10  1245    54141   45900      0    1.74e+00    0    1.22e+00
2007 02 10  1250    54141   46200      0    1.74e+00    0    1.24e+00
2007 02 10  1255    54141   46500      0    1.76e+00    0    1.23e+00
2007 02 10  1300    54141   46800      0    1.76e+00    0    1.23e+00
2007 02 10  1305    54141   47100      0    1.73e+00    0    1.22e+00
2007 02 10  1310    54141   47400      0    1.77e+00    0    1.24e+00
2007 02 10  1315    54141   47700      0    1.74e+00    0    1.21e+00
2007 02 10  1320    54141   48000      0    1.77e+00    0    1.25e+00
2007 02 10  1325    54141   48300      0    1.77e+00    0    1.24e+00
2007 02 10  1330    54141   48600      0    1.76e+00    0    1.24e+00
2007 02 10  1335    54141   48900      0    1.72e+00    0    1.20e+00
2007 02 10  1340    54141   49200      0    1.74e+00    0    1.21e+00
2007 02 10  1345    54141   49500      0    1.72e+00    0    1.20e+00
2007 02 10  1350    54141   49800      0    1.76e+00    0    1.23e+00
2007 02 10  1355    54141   50100      0    1.76e+00    0    1.23e+00
2007 02 10  1400    54141   50400      0    1.77e+00    0    1.24e+00
2007 02 10  1405    54141   50700      0    1.75e+00    0    1.23e+00
2007 02 10  1410    54141   51000      0    1.73e+00    0    1.22e+00
2007 02 10  1415    54141   51300      0    1.81e+00    0    1.26e+00
2007 02 10  1420    54141   51600      0    1.80e+00    0    1.25e+00
2007 02 10  1425    54141   51900      0    1.79e+00    0    1.24e+00
2007 02 10  1430    54141   52200      0    1.79e+00    0    1.26e+00
2007 02 10  1435    54141   52500      0    1.79e+00    0    1.26e+00
2007 02 10  1440    54141   52800      0    1.82e+00    0    1.27e+00
2007 02 10  1445    54141   53100      0    1.75e+00    0    1.24e+00
2007 02 10  1450    54141   53400      0    1.80e+00    0    1.27e+00
2007 02 10  1455    54141   53700      0    1.78e+00    0    1.25e+00
2007 02 10  1500    54141   54000      0    1.80e+00    0    1.27e+00
2007 02 10  1505    54141   54300      0    1.80e+00    0    1.26e+00
2007 02 10  1510    54141   54600      0    1.77e+00    0    1.24e+00
2007 02 10  1515    54141   54900      0    1.78e+00    0    1.25e+00
2007 02 10  1520    54141   55200      0    1.78e+00    0    1.24e+00
2007 02 10  1525    54141   55500      0    1.74e+00    0    1.22e+00
2007 02 10  1530    54141   55800      0    1.76e+00    0    1.24e+00
2007 02 10  1535    54141   56100      0    1.73e+00    0    1.21e+00
2007 02 10  1540    54141   56400      0    1.76e+00    0    1.23e+00
2007 02 10  1545    54141   56700      0    1.75e+00    0    1.22e+00
2007 02 10  1550    54141   57000      0    1.77e+00    0    1.22e+00
2007 02 10  1555    54141   57300      0    1.73e+00    0    1.22e+00
2007 02 10  1600    54141   57600      0    1.73e+00    0    1.21e+00
2007 02 10  1605    54141   57900      0    1.75e+00    0    1.23e+00
2007 02 10  1610    54141   58200      0    1.78e+00    0    1.25e+00
2007 02 10  1615    54141   58500      0    1.76e+00    0    1.21e+00
2007 02 10  1620    54141   58800      0    1.74e+00    0    1.22e+00
2007 02 10  1625    54141   59100      0    1.77e+00    0    1.23e+00
2007 02 10  1630    54141   59400      0    1.79e+00    0    1.25e+00
2007 02 10  1635    54141   59700      0    1.78e+00    0    1.25e+00
2007 02 10  1640    54141   60000      0    1.79e+00    0    1.24e+00
2007 02 10  1645    54141   60300      0    1.77e+00    0    1.25e+00
2007 02 10  1650    54141   60600      0    1.77e+00    0    1.23e+00
2007 02 10  1655    54141   60900      0    1.79e+00    0    1.25e+00
2007 02 10  1700    54141   61200      0    1.78e+00    0    1.25e+00
2007 02 10  1705    54141   61500      0    1.75e+00    0    1.22e+00
2007 02 10  1710    54141   61800      0    1.79e+00    0    1.25e+00
2007 02 10  1715    54141   62100      0    1.74e+00    0    1.22e+00
2007 02 10  1720    54141   62400      0    1.79e+00    0    1.25e+00
2007 02 10  1725    54141   62700      0    1.78e+00    0    1.25e+00
2007 02 10  1730    54141   63000      0    1.81e+00    0    1.27e+00
2007 02 10  1735    54141   63300      0    1.79e+00    0    1.27e+00
2007 02 10  1740    54141   63600      0    1.71e+00    0    1.20e+00
2007 02 10  1745    54141   63900      0    1.79e+00    0    1.26e+00
2007 02 10  1750    54141   64200      0    1.75e+00    0    1.22e+00
2007 02 10  1755    54141   64500      0    1.74e+00    0    1.23e+00
2007 02 10  1800    54141   64800      0    1.66e+00    0    1.17e+00
2007 02 10  1805    54141   65100      0    1.79e+00    0    1.26e+00
2007 02 10  1810    54141   65400      0    1.75e+00    0    1.22e+00
2007 02 10  1815    54141   65700      0    1.75e+00    0    1.23e+00
2007 02 10  1820    54141   66000      0    1.81e+00    0    1.27e+00
2007 02 10  1825    54141   66300      0    1.76e+00    0    1.24e+00
2007 02 10  1830    54141   66600      0    1.78e+00    0    1.24e+00
2007 02 10  1835    54141   66900      0    1.76e+00    0    1.24e+00
2007 02 10  1840    54141   67200      0    1.77e+00    0    1.24e+00
2007 02 10  1845    54141   67500      0    1.76e+00    0    1.23e+00
2007 02 10  1850    54141   67800      0    1.78e+00    0    1.25e+00
2007 02 10  1855    54141   68100      0    1.76e+00    0    1.23e+00
2007 02 10  1900    54141   68400      0    1.79e+00    0    1.26e+00
2007 02 10  1905    54141   68700      0    1.81e+00    0    1.28e+00
2007 02 10  1910    54141   69000      0    1.77e+00    0    1.24e+00
2007 02 10  1915    54141   69300      0    1.76e+00    0    1.24e+00
2007 02 10  1920    54141   69600      0    1.77e+00    0    1.24e+00
2007 02 10  1925    54141   69900      0    1.77e+00    0    1.23e+00
2007 02 10  1930    54141   70200      0    1.74e+00    0    1.21e+00
2007 02 10  1935    54141   70500      0    1.77e+00    0    1.24e+00
2007 02 10  1940    54141   70800      0    1.79e+00    0    1.26e+00
2007 02 10  1945    54141   71100      0    1.81e+00    0    1.26e+00
2007 02 10  1950    54141   71400      0    1.77e+00    0    1.24e+00
2007 02 10  1955    54141   71700      0    1.79e+00    0    1.27e+00
2007 02 10  2000    54141   72000      0    1.76e+00    0    1.24e+00
2007 02 10  2005    54141   72300      0    1.79e+00    0    1.24e+00
2007 02 10  2010    54141   72600      0    1.80e+00    0    1.26e+00
2007 02 10  2015    54141   72900      0    1.79e+00    0    1.26e+00
2007 02 10  2020    54141   73200      0    1.81e+00    0    1.28e+00
2007 02 10  2025    54141   73500      0    1.82e+00    0    1.29e+00
2007 02 10  2030    54141   73800      0    1.68e+00    0    1.19e+00
2007 02 10  2035    54141   74100      0    1.78e+00    0    1.26e+00
2007 02 10  2040    54141   74400      0    1.80e+00    0    1.26e+00
2007 02 10  2045    54141   74700      0    1.77e+00    0    1.25e+00
2007 02 10  2050    54141   75000      0    1.77e+00    0    1.24e+00
2007 02 10  2055    54141   75300      0    1.82e+00    0    1.29e+00
2007 02 10  2100    54141   75600      0    1.75e+00    0    1.22e+00
2007 02 10  2105    54141   75900      0    1.81e+00    0    1.26e+00
2007 02 10  2110    54141   76200      0    1.79e+00    0    1.25e+00
2007 02 10  2115    54141   76500      0    1.79e+00    0    1.27e+00
2007 02 10  2120    54141   76800      0    1.79e+00    0    1.25e+00
2007 02 10  2125    54141   77100      0    1.81e+00    0    1.26e+00
2007 02 10  2130    54141   77400      0    1.73e+00    0    1.22e+00
2007 02 10  2135    54141   77700      0    1.82e+00    0    1.29e+00
2007 02 10  2140    54141   78000      0    1.80e+00    0    1.27e+00
2007 02 10  2145    54141   78300      0    1.77e+00    0    1.24e+00
2007 02 10  2150    54141   78600      0    1.80e+00    0    1.27e+00
2007 02 10  2155    54141   78900      0    1.78e+00    0    1.24e+00
2007 02 10  2200    54141   79200      0    1.78e+00    0    1.24e+00
2007 02 10  2205    54141   79500      0    1.80e+00    0    1.26e+00
2007 02 10  2210    54141   79800      0    1.79e+00    0    1.24e+00
2007 02 10  2215    54141   80100      0    1.79e+00    0    1.24e+00
2007 02 10  2220    54141   80400      0    1.78e+00    0    1.25e+00
2007 02 10  2225    54141   80700      0    1.81e+00    0    1.27e+00
2007 02 10  2230    54141   81000      0    1.77e+00    0    1.24e+00
2007 02 10  2235    54141   81300      0    1.80e+00    0    1.26e+00
2007 02 10  2240    54141   81600      0    1.75e+00    0    1.22e+00
2007 02 10  2245    54141   81900      0    1.82e+00    0    1.27e+00
2007 02 10  2250    54141   82200      0    1.75e+00    0    1.23e+00
2007 02 10  2255    54141   82500      0    1.77e+00    0    1.23e+00
2007 02 10  2300    54141   82800      0    1.81e+00    0    1.27e+00
2007 02 10  2305    54141   83100      0    1.81e+00    0    1.27e+00
2007 02 10  2310    54141   83400      0    1.77e+00    0    1.24e+00
2007 02 10  2315    54141   83700      0    1.81e+00    0    1.26e+00
2007 02 10  2320    54141   84000      0    1.82e+00    0    1.27e+00
2007 02 10  2325    54141   84300      0    1.80e+00    0    1.26e+00
2007 02 10  2330    54141   84600      0    1.69e+00    0    1.17e+00
2007 02 10  2335    54141   84900      0    1.79e+00    0    1.26e+00
2007 02 10  2340    54141   85200      0    1.81e+00    0    1.26e+00
2007 02 10  2345    54141   85500      0    1.78e+00    0    1.24e+00
2007 02 10  2350    54141   85800      0    1.75e+00    0    1.23e+00
2007 02 10  2355    54141   86100      0    1.76e+00    0    1.24e+00
