:Data_list: 20070209_ace_sis_5m.txt
:Created: 2007 Feb 10 0011 UT
# Prepared by the U.S. Dept. of Commerce, NOAA, Space Environment Center.
# Please send comments and suggestions to SEC.Webmaster@noaa.gov 
# 
# Units: proton flux p/cs2-sec-ster
# Status(S): 0 = nominal data, 1 to 8 = bad data record, 9 = no data
# Missing data values: -1.00e+05
# Source: ACE Satellite - Solar Isotope Spectrometer
#
# 5-minute averaged Real-time Integral Flux of High-energy Solar Protons
# 
#                 Modified Seconds
# UT Date   Time   Julian  of the      ---- Integral Proton Flux ----
# YR MO DA  HHMM     Day     Day       S    > 10 MeV    S    > 30 MeV
#--------------------------------------------------------------------
2007 02 09  0000    54140       0      0    1.73e+00    0    1.21e+00
2007 02 09  0005    54140     300      0    1.71e+00    0    1.20e+00
2007 02 09  0010    54140     600      0    1.69e+00    0    1.18e+00
2007 02 09  0015    54140     900      0    1.75e+00    0    1.23e+00
2007 02 09  0020    54140    1200      0    1.70e+00    0    1.20e+00
2007 02 09  0025    54140    1500      0    1.73e+00    0    1.21e+00
2007 02 09  0030    54140    1800      0    1.73e+00    0    1.21e+00
2007 02 09  0035    54140    2100      0    1.74e+00    0    1.22e+00
2007 02 09  0040    54140    2400      0    1.74e+00    0    1.22e+00
2007 02 09  0045    54140    2700      0    1.70e+00    0    1.18e+00
2007 02 09  0050    54140    3000      0    1.71e+00    0    1.21e+00
2007 02 09  0055    54140    3300      0    1.70e+00    0    1.19e+00
2007 02 09  0100    54140    3600      0    1.71e+00    0    1.20e+00
2007 02 09  0105    54140    3900      0    1.66e+00    0    1.16e+00
2007 02 09  0110    54140    4200      0    1.70e+00    0    1.19e+00
2007 02 09  0115    54140    4500      0    1.68e+00    0    1.17e+00
2007 02 09  0120    54140    4800      0    1.71e+00    0    1.20e+00
2007 02 09  0125    54140    5100      0    1.72e+00    0    1.20e+00
2007 02 09  0130    54140    5400      0    1.71e+00    0    1.21e+00
2007 02 09  0135    54140    5700      0    1.70e+00    0    1.19e+00
2007 02 09  0140    54140    6000      0    1.72e+00    0    1.21e+00
2007 02 09  0145    54140    6300      0    1.76e+00    0    1.24e+00
2007 02 09  0150    54140    6600      0    1.72e+00    0    1.20e+00
2007 02 09  0155    54140    6900      0    1.71e+00    0    1.20e+00
2007 02 09  0200    54140    7200      0    1.72e+00    0    1.21e+00
2007 02 09  0205    54140    7500      0    1.73e+00    0    1.20e+00
2007 02 09  0210    54140    7800      9   -1.00e+05    9   -1.00e+05
2007 02 09  0215    54140    8100      9   -1.00e+05    9   -1.00e+05
2007 02 09  0220    54140    8400      9   -1.00e+05    9   -1.00e+05
2007 02 09  0225    54140    8700      9   -1.00e+05    9   -1.00e+05
2007 02 09  0230    54140    9000      9   -1.00e+05    9   -1.00e+05
2007 02 09  0235    54140    9300      9   -1.00e+05    9   -1.00e+05
2007 02 09  0240    54140    9600      9   -1.00e+05    9   -1.00e+05
2007 02 09  0245    54140    9900      9   -1.00e+05    9   -1.00e+05
2007 02 09  0250    54140   10200      9   -1.00e+05    9   -1.00e+05
2007 02 09  0255    54140   10500      0    1.78e+00    0    1.22e+00
2007 02 09  0300    54140   10800      0    1.75e+00    0    1.22e+00
2007 02 09  0305    54140   11100      0    1.69e+00    0    1.18e+00
2007 02 09  0310    54140   11400      0    1.73e+00    0    1.22e+00
2007 02 09  0315    54140   11700      0    1.71e+00    0    1.20e+00
2007 02 09  0320    54140   12000      0    1.66e+00    0    1.16e+00
2007 02 09  0325    54140   12300      0    1.73e+00    0    1.21e+00
2007 02 09  0330    54140   12600      0    1.72e+00    0    1.20e+00
2007 02 09  0335    54140   12900      0    1.73e+00    0    1.23e+00
2007 02 09  0340    54140   13200      0    1.69e+00    0    1.19e+00
2007 02 09  0345    54140   13500      0    1.73e+00    0    1.20e+00
2007 02 09  0350    54140   13800      0    1.70e+00    0    1.19e+00
2007 02 09  0355    54140   14100      0    1.69e+00    0    1.18e+00
2007 02 09  0400    54140   14400      0    1.71e+00    0    1.19e+00
2007 02 09  0405    54140   14700      0    1.71e+00    0    1.19e+00
2007 02 09  0410    54140   15000      0    1.73e+00    0    1.21e+00
2007 02 09  0415    54140   15300      0    1.74e+00    0    1.22e+00
2007 02 09  0420    54140   15600      0    1.67e+00    0    1.17e+00
2007 02 09  0425    54140   15900      0    1.70e+00    0    1.19e+00
2007 02 09  0430    54140   16200      0    1.69e+00    0    1.17e+00
2007 02 09  0435    54140   16500      0    1.72e+00    0    1.22e+00
2007 02 09  0440    54140   16800      0    1.72e+00    0    1.21e+00
2007 02 09  0445    54140   17100      0    1.74e+00    0    1.22e+00
2007 02 09  0450    54140   17400      0    1.73e+00    0    1.21e+00
2007 02 09  0455    54140   17700      0    1.73e+00    0    1.22e+00
2007 02 09  0500    54140   18000      0    1.72e+00    0    1.20e+00
2007 02 09  0505    54140   18300      0    1.73e+00    0    1.21e+00
2007 02 09  0510    54140   18600      0    1.73e+00    0    1.20e+00
2007 02 09  0515    54140   18900      0    1.73e+00    0    1.22e+00
2007 02 09  0520    54140   19200      0    1.75e+00    0    1.22e+00
2007 02 09  0525    54140   19500      0    1.71e+00    0    1.20e+00
2007 02 09  0530    54140   19800      0    1.71e+00    0    1.20e+00
2007 02 09  0535    54140   20100      0    1.76e+00    0    1.23e+00
2007 02 09  0540    54140   20400      0    1.72e+00    0    1.20e+00
2007 02 09  0545    54140   20700      0    1.75e+00    0    1.22e+00
2007 02 09  0550    54140   21000      0    1.70e+00    0    1.18e+00
2007 02 09  0555    54140   21300      0    1.69e+00    0    1.19e+00
2007 02 09  0600    54140   21600      0    1.69e+00    0    1.19e+00
2007 02 09  0605    54140   21900      0    1.70e+00    0    1.17e+00
2007 02 09  0610    54140   22200      0    1.69e+00    0    1.18e+00
2007 02 09  0615    54140   22500      0    1.76e+00    0    1.23e+00
2007 02 09  0620    54140   22800      0    1.67e+00    0    1.17e+00
2007 02 09  0625    54140   23100      0    1.74e+00    0    1.22e+00
2007 02 09  0630    54140   23400      0    1.71e+00    0    1.20e+00
2007 02 09  0635    54140   23700      0    1.73e+00    0    1.21e+00
2007 02 09  0640    54140   24000      0    1.74e+00    0    1.21e+00
2007 02 09  0645    54140   24300      0    1.73e+00    0    1.20e+00
2007 02 09  0650    54140   24600      0    1.71e+00    0    1.19e+00
2007 02 09  0655    54140   24900      0    1.67e+00    0    1.17e+00
2007 02 09  0700    54140   25200      0    1.69e+00    0    1.18e+00
2007 02 09  0705    54140   25500      0    1.72e+00    0    1.21e+00
2007 02 09  0710    54140   25800      0    1.73e+00    0    1.22e+00
2007 02 09  0715    54140   26100      0    1.73e+00    0    1.21e+00
2007 02 09  0720    54140   26400      0    1.73e+00    0    1.21e+00
2007 02 09  0725    54140   26700      0    1.70e+00    0    1.19e+00
2007 02 09  0730    54140   27000      0    1.70e+00    0    1.19e+00
2007 02 09  0735    54140   27300      0    1.70e+00    0    1.19e+00
2007 02 09  0740    54140   27600      0    1.75e+00    0    1.23e+00
2007 02 09  0745    54140   27900      0    1.73e+00    0    1.21e+00
2007 02 09  0750    54140   28200      0    1.75e+00    0    1.23e+00
2007 02 09  0755    54140   28500      0    1.70e+00    0    1.20e+00
2007 02 09  0800    54140   28800      0    1.76e+00    0    1.22e+00
2007 02 09  0805    54140   29100      0    1.73e+00    0    1.21e+00
2007 02 09  0810    54140   29400      0    1.73e+00    0    1.22e+00
2007 02 09  0815    54140   29700      0    1.75e+00    0    1.23e+00
2007 02 09  0820    54140   30000      0    1.70e+00    0    1.17e+00
2007 02 09  0825    54140   30300      0    1.67e+00    0    1.18e+00
2007 02 09  0830    54140   30600      0    1.72e+00    0    1.22e+00
2007 02 09  0835    54140   30900      0    1.68e+00    0    1.18e+00
2007 02 09  0840    54140   31200      0    1.72e+00    0    1.21e+00
2007 02 09  0845    54140   31500      0    1.70e+00    0    1.19e+00
2007 02 09  0850    54140   31800      0    1.71e+00    0    1.20e+00
2007 02 09  0855    54140   32100      0    1.70e+00    0    1.20e+00
2007 02 09  0900    54140   32400      0    1.70e+00    0    1.19e+00
2007 02 09  0905    54140   32700      0    1.74e+00    0    1.21e+00
2007 02 09  0910    54140   33000      0    1.72e+00    0    1.20e+00
2007 02 09  0915    54140   33300      0    1.74e+00    0    1.23e+00
2007 02 09  0920    54140   33600      0    1.72e+00    0    1.19e+00
2007 02 09  0925    54140   33900      0    1.71e+00    0    1.18e+00
2007 02 09  0930    54140   34200      0    1.75e+00    0    1.22e+00
2007 02 09  0935    54140   34500      0    1.75e+00    0    1.22e+00
2007 02 09  0940    54140   34800      0    1.73e+00    0    1.21e+00
2007 02 09  0945    54140   35100      0    1.72e+00    0    1.21e+00
2007 02 09  0950    54140   35400      0    1.69e+00    0    1.20e+00
2007 02 09  0955    54140   35700      0    1.75e+00    0    1.23e+00
2007 02 09  1000    54140   36000      0    1.74e+00    0    1.22e+00
2007 02 09  1005    54140   36300      0    1.71e+00    0    1.21e+00
2007 02 09  1010    54140   36600      0    1.72e+00    0    1.20e+00
2007 02 09  1015    54140   36900      0    1.73e+00    0    1.22e+00
2007 02 09  1020    54140   37200      0    1.74e+00    0    1.21e+00
2007 02 09  1025    54140   37500      0    1.74e+00    0    1.22e+00
2007 02 09  1030    54140   37800      0    1.66e+00    0    1.17e+00
2007 02 09  1035    54140   38100      0    1.75e+00    0    1.24e+00
2007 02 09  1040    54140   38400      0    1.76e+00    0    1.26e+00
2007 02 09  1045    54140   38700      0    1.72e+00    0    1.20e+00
2007 02 09  1050    54140   39000      0    1.70e+00    0    1.19e+00
2007 02 09  1055    54140   39300      0    1.71e+00    0    1.19e+00
2007 02 09  1100    54140   39600      0    1.70e+00    0    1.19e+00
2007 02 09  1105    54140   39900      0    1.71e+00    0    1.20e+00
2007 02 09  1110    54140   40200      0    1.75e+00    0    1.22e+00
2007 02 09  1115    54140   40500      0    1.75e+00    0    1.24e+00
2007 02 09  1120    54140   40800      0    1.70e+00    0    1.18e+00
2007 02 09  1125    54140   41100      0    1.73e+00    0    1.21e+00
2007 02 09  1130    54140   41400      0    1.68e+00    0    1.17e+00
2007 02 09  1135    54140   41700      0    1.72e+00    0    1.20e+00
2007 02 09  1140    54140   42000      0    1.75e+00    0    1.23e+00
2007 02 09  1145    54140   42300      0    1.76e+00    0    1.23e+00
2007 02 09  1150    54140   42600      0    1.75e+00    0    1.24e+00
2007 02 09  1155    54140   42900      0    1.71e+00    0    1.21e+00
2007 02 09  1200    54140   43200      0    1.74e+00    0    1.22e+00
2007 02 09  1205    54140   43500      0    1.74e+00    0    1.23e+00
2007 02 09  1210    54140   43800      0    1.73e+00    0    1.22e+00
2007 02 09  1215    54140   44100      0    1.70e+00    0    1.20e+00
2007 02 09  1220    54140   44400      0    1.72e+00    0    1.20e+00
2007 02 09  1225    54140   44700      0    1.72e+00    0    1.21e+00
2007 02 09  1230    54140   45000      0    1.73e+00    0    1.22e+00
2007 02 09  1235    54140   45300      0    1.77e+00    0    1.23e+00
2007 02 09  1240    54140   45600      0    1.76e+00    0    1.24e+00
2007 02 09  1245    54140   45900      0    1.74e+00    0    1.21e+00
2007 02 09  1250    54140   46200      0    1.68e+00    0    1.18e+00
2007 02 09  1255    54140   46500      0    1.71e+00    0    1.22e+00
2007 02 09  1300    54140   46800      0    1.75e+00    0    1.24e+00
2007 02 09  1305    54140   47100      0    1.72e+00    0    1.21e+00
2007 02 09  1310    54140   47400      0    1.72e+00    0    1.20e+00
2007 02 09  1315    54140   47700      0    1.71e+00    0    1.21e+00
2007 02 09  1320    54140   48000      0    1.73e+00    0    1.19e+00
2007 02 09  1325    54140   48300      0    1.74e+00    0    1.22e+00
2007 02 09  1330    54140   48600      0    1.74e+00    0    1.22e+00
2007 02 09  1335    54140   48900      0    1.68e+00    0    1.18e+00
2007 02 09  1340    54140   49200      0    1.72e+00    0    1.20e+00
2007 02 09  1345    54140   49500      0    1.73e+00    0    1.20e+00
2007 02 09  1350    54140   49800      0    1.72e+00    0    1.21e+00
2007 02 09  1355    54140   50100      0    1.73e+00    0    1.22e+00
2007 02 09  1400    54140   50400      0    1.75e+00    0    1.21e+00
2007 02 09  1405    54140   50700      0    1.72e+00    0    1.19e+00
2007 02 09  1410    54140   51000      0    1.73e+00    0    1.22e+00
2007 02 09  1415    54140   51300      0    1.69e+00    0    1.19e+00
2007 02 09  1420    54140   51600      0    1.75e+00    0    1.23e+00
2007 02 09  1425    54140   51900      0    1.69e+00    0    1.17e+00
2007 02 09  1430    54140   52200      0    1.73e+00    0    1.22e+00
2007 02 09  1435    54140   52500      0    1.73e+00    0    1.21e+00
2007 02 09  1440    54140   52800      0    1.76e+00    0    1.23e+00
2007 02 09  1445    54140   53100      0    1.82e+00    0    1.32e+00
2007 02 09  1450    54140   53400      0    1.71e+00    0    1.20e+00
2007 02 09  1455    54140   53700      0    1.72e+00    0    1.20e+00
2007 02 09  1500    54140   54000      0    1.69e+00    0    1.18e+00
2007 02 09  1505    54140   54300      0    1.73e+00    0    1.22e+00
2007 02 09  1510    54140   54600      0    1.74e+00    0    1.23e+00
2007 02 09  1515    54140   54900      0    1.69e+00    0    1.19e+00
2007 02 09  1520    54140   55200      0    1.71e+00    0    1.20e+00
2007 02 09  1525    54140   55500      0    1.70e+00    0    1.18e+00
2007 02 09  1530    54140   55800      0    1.69e+00    0    1.18e+00
2007 02 09  1535    54140   56100      0    1.76e+00    0    1.23e+00
2007 02 09  1540    54140   56400      0    1.73e+00    0    1.21e+00
2007 02 09  1545    54140   56700      0    1.70e+00    0    1.19e+00
2007 02 09  1550    54140   57000      0    1.70e+00    0    1.18e+00
2007 02 09  1555    54140   57300      0    1.68e+00    0    1.17e+00
2007 02 09  1600    54140   57600      0    1.75e+00    0    1.23e+00
2007 02 09  1605    54140   57900      0    1.68e+00    0    1.17e+00
2007 02 09  1610    54140   58200      0    1.73e+00    0    1.21e+00
2007 02 09  1615    54140   58500      0    1.75e+00    0    1.23e+00
2007 02 09  1620    54140   58800      0    1.71e+00    0    1.20e+00
2007 02 09  1625    54140   59100      0    1.70e+00    0    1.19e+00
2007 02 09  1630    54140   59400      0    1.73e+00    0    1.22e+00
2007 02 09  1635    54140   59700      0    1.72e+00    0    1.21e+00
2007 02 09  1640    54140   60000      0    1.72e+00    0    1.21e+00
2007 02 09  1645    54140   60300      0    1.72e+00    0    1.20e+00
2007 02 09  1650    54140   60600      0    1.73e+00    0    1.21e+00
2007 02 09  1655    54140   60900      0    1.77e+00    0    1.24e+00
2007 02 09  1700    54140   61200      0    1.72e+00    0    1.20e+00
2007 02 09  1705    54140   61500      0    1.69e+00    0    1.19e+00
2007 02 09  1710    54140   61800      0    1.69e+00    0    1.18e+00
2007 02 09  1715    54140   62100      0    1.72e+00    0    1.21e+00
2007 02 09  1720    54140   62400      0    1.70e+00    0    1.19e+00
2007 02 09  1725    54140   62700      0    1.70e+00    0    1.18e+00
2007 02 09  1730    54140   63000      0    1.70e+00    0    1.19e+00
2007 02 09  1735    54140   63300      0    1.70e+00    0    1.18e+00
2007 02 09  1740    54140   63600      0    1.74e+00    0    1.21e+00
2007 02 09  1745    54140   63900      0    1.75e+00    0    1.21e+00
2007 02 09  1750    54140   64200      0    1.69e+00    0    1.19e+00
2007 02 09  1755    54140   64500      0    1.68e+00    0    1.19e+00
2007 02 09  1800    54140   64800      0    1.73e+00    0    1.19e+00
2007 02 09  1805    54140   65100      0    1.75e+00    0    1.21e+00
2007 02 09  1810    54140   65400      0    1.72e+00    0    1.21e+00
2007 02 09  1815    54140   65700      0    1.72e+00    0    1.20e+00
2007 02 09  1820    54140   66000      0    1.77e+00    0    1.25e+00
2007 02 09  1825    54140   66300      0    1.76e+00    0    1.23e+00
2007 02 09  1830    54140   66600      0    1.77e+00    0    1.25e+00
2007 02 09  1835    54140   66900      0    1.72e+00    0    1.21e+00
2007 02 09  1840    54140   67200      0    1.75e+00    0    1.22e+00
2007 02 09  1845    54140   67500      0    1.74e+00    0    1.21e+00
2007 02 09  1850    54140   67800      0    1.78e+00    0    1.25e+00
2007 02 09  1855    54140   68100      0    1.76e+00    0    1.24e+00
2007 02 09  1900    54140   68400      0    1.75e+00    0    1.23e+00
2007 02 09  1905    54140   68700      0    1.72e+00    0    1.21e+00
2007 02 09  1910    54140   69000      0    1.72e+00    0    1.20e+00
2007 02 09  1915    54140   69300      0    1.73e+00    0    1.21e+00
2007 02 09  1920    54140   69600      0    1.71e+00    0    1.19e+00
2007 02 09  1925    54140   69900      0    1.77e+00    0    1.24e+00
2007 02 09  1930    54140   70200      0    1.75e+00    0    1.23e+00
2007 02 09  1935    54140   70500      0    1.72e+00    0    1.20e+00
2007 02 09  1940    54140   70800      0    1.72e+00    0    1.21e+00
2007 02 09  1945    54140   71100      0    1.73e+00    0    1.21e+00
2007 02 09  1950    54140   71400      0    1.73e+00    0    1.23e+00
2007 02 09  1955    54140   71700      0    1.74e+00    0    1.23e+00
2007 02 09  2000    54140   72000      0    1.69e+00    0    1.17e+00
2007 02 09  2005    54140   72300      0    1.74e+00    0    1.22e+00
2007 02 09  2010    54140   72600      0    1.74e+00    0    1.23e+00
2007 02 09  2015    54140   72900      0    1.75e+00    0    1.23e+00
2007 02 09  2020    54140   73200      0    1.75e+00    0    1.22e+00
2007 02 09  2025    54140   73500      0    1.78e+00    0    1.25e+00
2007 02 09  2030    54140   73800      0    1.76e+00    0    1.24e+00
2007 02 09  2035    54140   74100      0    1.76e+00    0    1.23e+00
2007 02 09  2040    54140   74400      0    1.73e+00    0    1.22e+00
2007 02 09  2045    54140   74700      0    1.74e+00    0    1.22e+00
2007 02 09  2050    54140   75000      0    1.77e+00    0    1.24e+00
2007 02 09  2055    54140   75300      0    1.75e+00    0    1.22e+00
2007 02 09  2100    54140   75600      0    1.78e+00    0    1.26e+00
2007 02 09  2105    54140   75900      0    1.74e+00    0    1.22e+00
2007 02 09  2110    54140   76200      0    1.75e+00    0    1.22e+00
2007 02 09  2115    54140   76500      0    1.72e+00    0    1.20e+00
2007 02 09  2120    54140   76800      0    1.78e+00    0    1.25e+00
2007 02 09  2125    54140   77100      0    1.75e+00    0    1.21e+00
2007 02 09  2130    54140   77400      0    1.76e+00    0    1.23e+00
2007 02 09  2135    54140   77700      0    1.76e+00    0    1.23e+00
2007 02 09  2140    54140   78000      0    1.73e+00    0    1.21e+00
2007 02 09  2145    54140   78300      0    1.76e+00    0    1.23e+00
2007 02 09  2150    54140   78600      0    1.75e+00    0    1.23e+00
2007 02 09  2155    54140   78900      0    1.76e+00    0    1.24e+00
2007 02 09  2200    54140   79200      0    1.75e+00    0    1.24e+00
2007 02 09  2205    54140   79500      0    1.78e+00    0    1.26e+00
2007 02 09  2210    54140   79800      0    1.80e+00    0    1.27e+00
2007 02 09  2215    54140   80100      0    1.77e+00    0    1.24e+00
2007 02 09  2220    54140   80400      0    1.78e+00    0    1.23e+00
2007 02 09  2225    54140   80700      0    1.78e+00    0    1.25e+00
2007 02 09  2230    54140   81000      0    1.74e+00    0    1.23e+00
2007 02 09  2235    54140   81300      0    1.74e+00    0    1.21e+00
2007 02 09  2240    54140   81600      0    1.74e+00    0    1.22e+00
2007 02 09  2245    54140   81900      0    1.73e+00    0    1.22e+00
2007 02 09  2250    54140   82200      0    1.79e+00    0    1.26e+00
2007 02 09  2255    54140   82500      0    1.75e+00    0    1.23e+00
2007 02 09  2300    54140   82800      0    1.74e+00    0    1.21e+00
2007 02 09  2305    54140   83100      0    1.78e+00    0    1.25e+00
2007 02 09  2310    54140   83400      0    1.75e+00    0    1.24e+00
2007 02 09  2315    54140   83700      0    1.77e+00    0    1.25e+00
2007 02 09  2320    54140   84000      0    1.70e+00    0    1.19e+00
2007 02 09  2325    54140   84300      0    1.76e+00    0    1.22e+00
2007 02 09  2330    54140   84600      0    1.74e+00    0    1.23e+00
2007 02 09  2335    54140   84900      0    1.71e+00    0    1.20e+00
2007 02 09  2340    54140   85200      0    1.77e+00    0    1.25e+00
2007 02 09  2345    54140   85500      0    1.73e+00    0    1.22e+00
2007 02 09  2350    54140   85800      0    1.74e+00    0    1.22e+00
2007 02 09  2355    54140   86100      0    1.74e+00    0    1.22e+00
