:Data_list: 20070211_ace_sis_5m.txt
:Created: 2007 Feb 12 0011 UT
# Prepared by the U.S. Dept. of Commerce, NOAA, Space Environment Center.
# Please send comments and suggestions to SEC.Webmaster@noaa.gov 
# 
# Units: proton flux p/cs2-sec-ster
# Status(S): 0 = nominal data, 1 to 8 = bad data record, 9 = no data
# Missing data values: -1.00e+05
# Source: ACE Satellite - Solar Isotope Spectrometer
#
# 5-minute averaged Real-time Integral Flux of High-energy Solar Protons
# 
#                 Modified Seconds
# UT Date   Time   Julian  of the      ---- Integral Proton Flux ----
# YR MO DA  HHMM     Day     Day       S    > 10 MeV    S    > 30 MeV
#--------------------------------------------------------------------
2007 02 11  0000    54142       0      0    1.78e+00    0    1.24e+00
2007 02 11  0005    54142     300      0    1.77e+00    0    1.24e+00
2007 02 11  0010    54142     600      0    1.79e+00    0    1.26e+00
2007 02 11  0015    54142     900      0    1.77e+00    0    1.23e+00
2007 02 11  0020    54142    1200      0    1.81e+00    0    1.28e+00
2007 02 11  0025    54142    1500      0    1.79e+00    0    1.24e+00
2007 02 11  0030    54142    1800      0    1.79e+00    0    1.24e+00
2007 02 11  0035    54142    2100      0    1.77e+00    0    1.23e+00
2007 02 11  0040    54142    2400      0    1.80e+00    0    1.26e+00
2007 02 11  0045    54142    2700      0    1.83e+00    0    1.28e+00
2007 02 11  0050    54142    3000      0    1.81e+00    0    1.28e+00
2007 02 11  0055    54142    3300      0    1.81e+00    0    1.27e+00
2007 02 11  0100    54142    3600      0    1.74e+00    0    1.23e+00
2007 02 11  0105    54142    3900      0    1.77e+00    0    1.23e+00
2007 02 11  0110    54142    4200      0    1.79e+00    0    1.24e+00
2007 02 11  0115    54142    4500      0    1.81e+00    0    1.27e+00
2007 02 11  0120    54142    4800      0    1.80e+00    0    1.28e+00
2007 02 11  0125    54142    5100      0    1.75e+00    0    1.23e+00
2007 02 11  0130    54142    5400      0    1.78e+00    0    1.23e+00
2007 02 11  0135    54142    5700      0    1.75e+00    0    1.23e+00
2007 02 11  0140    54142    6000      0    1.81e+00    0    1.27e+00
2007 02 11  0145    54142    6300      0    1.79e+00    0    1.25e+00
2007 02 11  0150    54142    6600      0    1.78e+00    0    1.25e+00
2007 02 11  0155    54142    6900      0    1.80e+00    0    1.26e+00
2007 02 11  0200    54142    7200      0    1.79e+00    0    1.26e+00
2007 02 11  0205    54142    7500      0    1.79e+00    0    1.24e+00
2007 02 11  0210    54142    7800      0    1.75e+00    0    1.22e+00
2007 02 11  0215    54142    8100      0    1.80e+00    0    1.26e+00
2007 02 11  0220    54142    8400      0    1.77e+00    0    1.24e+00
2007 02 11  0225    54142    8700      0    1.78e+00    0    1.25e+00
2007 02 11  0230    54142    9000      0    1.76e+00    0    1.24e+00
2007 02 11  0235    54142    9300      0    1.75e+00    0    1.23e+00
2007 02 11  0240    54142    9600      0    1.77e+00    0    1.24e+00
2007 02 11  0245    54142    9900      0    1.78e+00    0    1.24e+00
2007 02 11  0250    54142   10200      0    1.80e+00    0    1.27e+00
2007 02 11  0255    54142   10500      0    1.77e+00    0    1.23e+00
2007 02 11  0300    54142   10800      0    1.81e+00    0    1.27e+00
2007 02 11  0305    54142   11100      0    1.76e+00    0    1.24e+00
2007 02 11  0310    54142   11400      0    1.78e+00    0    1.25e+00
2007 02 11  0315    54142   11700      0    1.76e+00    0    1.24e+00
2007 02 11  0320    54142   12000      0    1.80e+00    0    1.27e+00
2007 02 11  0325    54142   12300      0    1.80e+00    0    1.26e+00
2007 02 11  0330    54142   12600      0    1.76e+00    0    1.23e+00
2007 02 11  0335    54142   12900      0    1.76e+00    0    1.24e+00
2007 02 11  0340    54142   13200      0    1.74e+00    0    1.21e+00
2007 02 11  0345    54142   13500      0    1.78e+00    0    1.23e+00
2007 02 11  0350    54142   13800      0    1.75e+00    0    1.22e+00
2007 02 11  0355    54142   14100      0    1.77e+00    0    1.25e+00
2007 02 11  0400    54142   14400      0    1.76e+00    0    1.22e+00
2007 02 11  0405    54142   14700      0    1.76e+00    0    1.23e+00
2007 02 11  0410    54142   15000      0    1.79e+00    0    1.25e+00
2007 02 11  0415    54142   15300      0    1.79e+00    0    1.26e+00
2007 02 11  0420    54142   15600      0    1.73e+00    0    1.22e+00
2007 02 11  0425    54142   15900      0    1.78e+00    0    1.25e+00
2007 02 11  0430    54142   16200      0    1.76e+00    0    1.23e+00
2007 02 11  0435    54142   16500      0    1.75e+00    0    1.22e+00
2007 02 11  0440    54142   16800      0    1.76e+00    0    1.24e+00
2007 02 11  0445    54142   17100      0    1.78e+00    0    1.24e+00
2007 02 11  0450    54142   17400      0    1.75e+00    0    1.24e+00
2007 02 11  0455    54142   17700      0    1.77e+00    0    1.24e+00
2007 02 11  0500    54142   18000      0    1.76e+00    0    1.23e+00
2007 02 11  0505    54142   18300      0    1.77e+00    0    1.24e+00
2007 02 11  0510    54142   18600      0    1.78e+00    0    1.25e+00
2007 02 11  0515    54142   18900      0    1.77e+00    0    1.24e+00
2007 02 11  0520    54142   19200      0    1.79e+00    0    1.26e+00
2007 02 11  0525    54142   19500      0    1.76e+00    0    1.23e+00
2007 02 11  0530    54142   19800      0    1.81e+00    0    1.27e+00
2007 02 11  0535    54142   20100      0    1.77e+00    0    1.24e+00
2007 02 11  0540    54142   20400      0    1.80e+00    0    1.28e+00
2007 02 11  0545    54142   20700      0    1.72e+00    0    1.21e+00
2007 02 11  0550    54142   21000      0    1.78e+00    0    1.24e+00
2007 02 11  0555    54142   21300      0    1.80e+00    0    1.25e+00
2007 02 11  0600    54142   21600      0    1.77e+00    0    1.24e+00
2007 02 11  0605    54142   21900      0    1.79e+00    0    1.25e+00
2007 02 11  0610    54142   22200      0    1.73e+00    0    1.21e+00
2007 02 11  0615    54142   22500      0    1.77e+00    0    1.25e+00
2007 02 11  0620    54142   22800      0    1.78e+00    0    1.25e+00
2007 02 11  0625    54142   23100      0    1.79e+00    0    1.25e+00
2007 02 11  0630    54142   23400      0    1.78e+00    0    1.23e+00
2007 02 11  0635    54142   23700      0    1.77e+00    0    1.24e+00
2007 02 11  0640    54142   24000      0    1.76e+00    0    1.23e+00
2007 02 11  0645    54142   24300      0    1.73e+00    0    1.22e+00
2007 02 11  0650    54142   24600      0    1.80e+00    0    1.28e+00
2007 02 11  0655    54142   24900      0    1.74e+00    0    1.22e+00
2007 02 11  0700    54142   25200      0    1.79e+00    0    1.26e+00
2007 02 11  0705    54142   25500      0    1.75e+00    0    1.22e+00
2007 02 11  0710    54142   25800      0    1.74e+00    0    1.22e+00
2007 02 11  0715    54142   26100      0    1.75e+00    0    1.22e+00
2007 02 11  0720    54142   26400      0    1.79e+00    0    1.26e+00
2007 02 11  0725    54142   26700      0    1.77e+00    0    1.23e+00
2007 02 11  0730    54142   27000      0    1.78e+00    0    1.25e+00
2007 02 11  0735    54142   27300      0    1.77e+00    0    1.25e+00
2007 02 11  0740    54142   27600      0    1.75e+00    0    1.23e+00
2007 02 11  0745    54142   27900      0    1.71e+00    0    1.20e+00
2007 02 11  0750    54142   28200      0    1.74e+00    0    1.21e+00
2007 02 11  0755    54142   28500      0    1.77e+00    0    1.24e+00
2007 02 11  0800    54142   28800      0    1.76e+00    0    1.23e+00
2007 02 11  0805    54142   29100      0    1.74e+00    0    1.22e+00
2007 02 11  0810    54142   29400      0    1.75e+00    0    1.24e+00
2007 02 11  0815    54142   29700      0    1.75e+00    0    1.23e+00
2007 02 11  0820    54142   30000      0    1.72e+00    0    1.21e+00
2007 02 11  0825    54142   30300      0    1.73e+00    0    1.20e+00
2007 02 11  0830    54142   30600      0    1.73e+00    0    1.22e+00
2007 02 11  0835    54142   30900      0    1.79e+00    0    1.26e+00
2007 02 11  0840    54142   31200      0    1.74e+00    0    1.21e+00
2007 02 11  0845    54142   31500      0    1.73e+00    0    1.22e+00
2007 02 11  0850    54142   31800      0    1.74e+00    0    1.21e+00
2007 02 11  0855    54142   32100      0    1.74e+00    0    1.22e+00
2007 02 11  0900    54142   32400      0    1.74e+00    0    1.22e+00
2007 02 11  0905    54142   32700      0    1.76e+00    0    1.23e+00
2007 02 11  0910    54142   33000      0    1.76e+00    0    1.23e+00
2007 02 11  0915    54142   33300      0    1.77e+00    0    1.23e+00
2007 02 11  0920    54142   33600      0    1.79e+00    0    1.25e+00
2007 02 11  0925    54142   33900      0    1.77e+00    0    1.25e+00
2007 02 11  0930    54142   34200      0    1.80e+00    0    1.25e+00
2007 02 11  0935    54142   34500      0    1.80e+00    0    1.27e+00
2007 02 11  0940    54142   34800      0    1.81e+00    0    1.27e+00
2007 02 11  0945    54142   35100      0    1.79e+00    0    1.24e+00
2007 02 11  0950    54142   35400      0    1.78e+00    0    1.25e+00
2007 02 11  0955    54142   35700      0    1.89e+00    0    1.35e+00
2007 02 11  1000    54142   36000      0    1.79e+00    0    1.26e+00
2007 02 11  1005    54142   36300      0    1.78e+00    0    1.24e+00
2007 02 11  1010    54142   36600      0    1.79e+00    0    1.25e+00
2007 02 11  1015    54142   36900      0    1.75e+00    0    1.23e+00
2007 02 11  1020    54142   37200      0    1.76e+00    0    1.23e+00
2007 02 11  1025    54142   37500      0    1.81e+00    0    1.27e+00
2007 02 11  1030    54142   37800      0    1.80e+00    0    1.26e+00
2007 02 11  1035    54142   38100      0    1.77e+00    0    1.24e+00
2007 02 11  1040    54142   38400      0    1.77e+00    0    1.23e+00
2007 02 11  1045    54142   38700      0    1.75e+00    0    1.24e+00
2007 02 11  1050    54142   39000      0    1.76e+00    0    1.23e+00
2007 02 11  1055    54142   39300      0    1.76e+00    0    1.24e+00
2007 02 11  1100    54142   39600      0    1.77e+00    0    1.24e+00
2007 02 11  1105    54142   39900      0    1.77e+00    0    1.25e+00
2007 02 11  1110    54142   40200      0    1.77e+00    0    1.24e+00
2007 02 11  1115    54142   40500      0    1.77e+00    0    1.24e+00
2007 02 11  1120    54142   40800      0    1.78e+00    0    1.24e+00
2007 02 11  1125    54142   41100      0    1.75e+00    0    1.23e+00
2007 02 11  1130    54142   41400      0    1.77e+00    0    1.25e+00
2007 02 11  1135    54142   41700      0    1.74e+00    0    1.22e+00
2007 02 11  1140    54142   42000      0    1.81e+00    0    1.26e+00
2007 02 11  1145    54142   42300      0    1.75e+00    0    1.23e+00
2007 02 11  1150    54142   42600      0    1.76e+00    0    1.23e+00
2007 02 11  1155    54142   42900      0    1.81e+00    0    1.27e+00
2007 02 11  1200    54142   43200      0    1.73e+00    0    1.21e+00
2007 02 11  1205    54142   43500      0    1.77e+00    0    1.25e+00
2007 02 11  1210    54142   43800      0    1.74e+00    0    1.22e+00
2007 02 11  1215    54142   44100      0    1.78e+00    0    1.26e+00
2007 02 11  1220    54142   44400      0    1.81e+00    0    1.27e+00
2007 02 11  1225    54142   44700      0    1.81e+00    0    1.27e+00
2007 02 11  1230    54142   45000      0    1.79e+00    0    1.26e+00
2007 02 11  1235    54142   45300      0    1.77e+00    0    1.24e+00
2007 02 11  1240    54142   45600      0    1.81e+00    0    1.28e+00
2007 02 11  1245    54142   45900      0    1.75e+00    0    1.23e+00
2007 02 11  1250    54142   46200      0    1.73e+00    0    1.22e+00
2007 02 11  1255    54142   46500      0    1.80e+00    0    1.26e+00
2007 02 11  1300    54142   46800      0    1.81e+00    0    1.28e+00
2007 02 11  1305    54142   47100      0    1.77e+00    0    1.23e+00
2007 02 11  1310    54142   47400      0    1.77e+00    0    1.25e+00
2007 02 11  1315    54142   47700      0    1.77e+00    0    1.24e+00
2007 02 11  1320    54142   48000      0    1.75e+00    0    1.23e+00
2007 02 11  1325    54142   48300      0    1.76e+00    0    1.23e+00
2007 02 11  1330    54142   48600      0    1.75e+00    0    1.23e+00
2007 02 11  1335    54142   48900      0    1.77e+00    0    1.25e+00
2007 02 11  1340    54142   49200      0    1.83e+00    0    1.28e+00
2007 02 11  1345    54142   49500      0    1.75e+00    0    1.21e+00
2007 02 11  1350    54142   49800      0    1.72e+00    0    1.21e+00
2007 02 11  1355    54142   50100      0    1.78e+00    0    1.25e+00
2007 02 11  1400    54142   50400      0    1.79e+00    0    1.25e+00
2007 02 11  1405    54142   50700      0    1.81e+00    0    1.27e+00
2007 02 11  1410    54142   51000      0    1.80e+00    0    1.27e+00
2007 02 11  1415    54142   51300      0    1.79e+00    0    1.26e+00
2007 02 11  1420    54142   51600      0    1.79e+00    0    1.26e+00
2007 02 11  1425    54142   51900      0    1.77e+00    0    1.23e+00
2007 02 11  1430    54142   52200      0    1.80e+00    0    1.27e+00
2007 02 11  1435    54142   52500      0    1.79e+00    0    1.25e+00
2007 02 11  1440    54142   52800      0    1.78e+00    0    1.25e+00
2007 02 11  1445    54142   53100      0    1.77e+00    0    1.23e+00
2007 02 11  1450    54142   53400      0    1.78e+00    0    1.25e+00
2007 02 11  1455    54142   53700      0    1.81e+00    0    1.28e+00
2007 02 11  1500    54142   54000      0    1.76e+00    0    1.24e+00
2007 02 11  1505    54142   54300      0    1.77e+00    0    1.23e+00
2007 02 11  1510    54142   54600      0    1.74e+00    0    1.23e+00
2007 02 11  1515    54142   54900      0    1.79e+00    0    1.25e+00
2007 02 11  1520    54142   55200      0    1.78e+00    0    1.24e+00
2007 02 11  1525    54142   55500      0    1.73e+00    0    1.22e+00
2007 02 11  1530    54142   55800      0    1.73e+00    0    1.21e+00
2007 02 11  1535    54142   56100      0    1.76e+00    0    1.22e+00
2007 02 11  1540    54142   56400      0    1.79e+00    0    1.24e+00
2007 02 11  1545    54142   56700      0    1.74e+00    0    1.22e+00
2007 02 11  1550    54142   57000      0    1.78e+00    0    1.24e+00
2007 02 11  1555    54142   57300      0    1.75e+00    0    1.22e+00
2007 02 11  1600    54142   57600      0    1.79e+00    0    1.25e+00
2007 02 11  1605    54142   57900      9   -1.00e+05    9   -1.00e+05
2007 02 11  1610    54142   58200      0    1.80e+00    0    1.27e+00
2007 02 11  1615    54142   58500      0    1.74e+00    0    1.21e+00
2007 02 11  1620    54142   58800      0    1.76e+00    0    1.24e+00
2007 02 11  1625    54142   59100      0    1.78e+00    0    1.25e+00
2007 02 11  1630    54142   59400      0    1.73e+00    0    1.21e+00
2007 02 11  1635    54142   59700      0    1.76e+00    0    1.23e+00
2007 02 11  1640    54142   60000      0    1.81e+00    0    1.27e+00
2007 02 11  1645    54142   60300      0    1.78e+00    0    1.25e+00
2007 02 11  1650    54142   60600      0    1.77e+00    0    1.23e+00
2007 02 11  1655    54142   60900      0    1.77e+00    0    1.24e+00
2007 02 11  1700    54142   61200      0    1.78e+00    0    1.25e+00
2007 02 11  1705    54142   61500      0    1.79e+00    0    1.25e+00
2007 02 11  1710    54142   61800      0    1.78e+00    0    1.25e+00
2007 02 11  1715    54142   62100      0    1.79e+00    0    1.26e+00
2007 02 11  1720    54142   62400      0    1.73e+00    0    1.21e+00
2007 02 11  1725    54142   62700      0    1.77e+00    0    1.24e+00
2007 02 11  1730    54142   63000      0    1.76e+00    0    1.23e+00
2007 02 11  1735    54142   63300      0    1.79e+00    0    1.27e+00
2007 02 11  1740    54142   63600      0    1.75e+00    0    1.22e+00
2007 02 11  1745    54142   63900      0    1.75e+00    0    1.23e+00
2007 02 11  1750    54142   64200      0    1.76e+00    0    1.22e+00
2007 02 11  1755    54142   64500      0    1.77e+00    0    1.23e+00
2007 02 11  1800    54142   64800      0    1.79e+00    0    1.26e+00
2007 02 11  1805    54142   65100      0    1.80e+00    0    1.26e+00
2007 02 11  1810    54142   65400      0    1.79e+00    0    1.25e+00
2007 02 11  1815    54142   65700      0    1.78e+00    0    1.24e+00
2007 02 11  1820    54142   66000      0    1.77e+00    0    1.24e+00
2007 02 11  1825    54142   66300      0    1.77e+00    0    1.23e+00
2007 02 11  1830    54142   66600      0    1.80e+00    0    1.26e+00
2007 02 11  1835    54142   66900      0    1.76e+00    0    1.23e+00
2007 02 11  1840    54142   67200      0    1.76e+00    0    1.23e+00
2007 02 11  1845    54142   67500      0    1.75e+00    0    1.24e+00
2007 02 11  1850    54142   67800      0    1.74e+00    0    1.22e+00
2007 02 11  1855    54142   68100      0    1.74e+00    0    1.22e+00
2007 02 11  1900    54142   68400      0    1.77e+00    0    1.25e+00
2007 02 11  1905    54142   68700      0    1.79e+00    0    1.26e+00
2007 02 11  1910    54142   69000      0    1.77e+00    0    1.24e+00
2007 02 11  1915    54142   69300      0    1.75e+00    0    1.23e+00
2007 02 11  1920    54142   69600      0    1.78e+00    0    1.24e+00
2007 02 11  1925    54142   69900      0    1.76e+00    0    1.21e+00
2007 02 11  1930    54142   70200      0    1.72e+00    0    1.21e+00
2007 02 11  1935    54142   70500      0    1.73e+00    0    1.21e+00
2007 02 11  1940    54142   70800      0    1.75e+00    0    1.24e+00
2007 02 11  1945    54142   71100      0    1.72e+00    0    1.20e+00
2007 02 11  1950    54142   71400      0    1.74e+00    0    1.22e+00
2007 02 11  1955    54142   71700      0    1.71e+00    0    1.19e+00
2007 02 11  2000    54142   72000      0    1.76e+00    0    1.23e+00
2007 02 11  2005    54142   72300      0    1.76e+00    0    1.23e+00
2007 02 11  2010    54142   72600      0    1.77e+00    0    1.25e+00
2007 02 11  2015    54142   72900      0    1.70e+00    0    1.19e+00
2007 02 11  2020    54142   73200      0    1.74e+00    0    1.23e+00
2007 02 11  2025    54142   73500      0    1.70e+00    0    1.19e+00
2007 02 11  2030    54142   73800      0    1.75e+00    0    1.23e+00
2007 02 11  2035    54142   74100      0    1.79e+00    0    1.25e+00
2007 02 11  2040    54142   74400      0    1.75e+00    0    1.21e+00
2007 02 11  2045    54142   74700      0    1.75e+00    0    1.22e+00
2007 02 11  2050    54142   75000      0    1.75e+00    0    1.24e+00
2007 02 11  2055    54142   75300      0    1.70e+00    0    1.18e+00
2007 02 11  2100    54142   75600      0    1.75e+00    0    1.23e+00
2007 02 11  2105    54142   75900      0    1.78e+00    0    1.25e+00
2007 02 11  2110    54142   76200      0    1.76e+00    0    1.24e+00
2007 02 11  2115    54142   76500      0    1.74e+00    0    1.23e+00
2007 02 11  2120    54142   76800      0    1.80e+00    0    1.26e+00
2007 02 11  2125    54142   77100      0    1.72e+00    0    1.21e+00
2007 02 11  2130    54142   77400      0    1.74e+00    0    1.22e+00
2007 02 11  2135    54142   77700      0    1.74e+00    0    1.21e+00
2007 02 11  2140    54142   78000      0    1.77e+00    0    1.25e+00
2007 02 11  2145    54142   78300      0    1.75e+00    0    1.23e+00
2007 02 11  2150    54142   78600      0    1.74e+00    0    1.21e+00
2007 02 11  2155    54142   78900      0    1.76e+00    0    1.23e+00
2007 02 11  2200    54142   79200      0    1.75e+00    0    1.22e+00
2007 02 11  2205    54142   79500      0    1.78e+00    0    1.24e+00
2007 02 11  2210    54142   79800      0    1.77e+00    0    1.24e+00
2007 02 11  2215    54142   80100      0    1.70e+00    0    1.19e+00
2007 02 11  2220    54142   80400      0    1.73e+00    0    1.21e+00
2007 02 11  2225    54142   80700      0    1.76e+00    0    1.24e+00
2007 02 11  2230    54142   81000      0    1.71e+00    0    1.19e+00
2007 02 11  2235    54142   81300      0    1.72e+00    0    1.20e+00
2007 02 11  2240    54142   81600      0    1.74e+00    0    1.23e+00
2007 02 11  2245    54142   81900      0    1.77e+00    0    1.24e+00
2007 02 11  2250    54142   82200      0    1.73e+00    0    1.21e+00
2007 02 11  2255    54142   82500      0    1.74e+00    0    1.22e+00
2007 02 11  2300    54142   82800      0    1.69e+00    0    1.19e+00
2007 02 11  2305    54142   83100      0    1.74e+00    0    1.23e+00
2007 02 11  2310    54142   83400      0    1.73e+00    0    1.20e+00
2007 02 11  2315    54142   83700      0    1.74e+00    0    1.22e+00
2007 02 11  2320    54142   84000      0    1.75e+00    0    1.21e+00
2007 02 11  2325    54142   84300      0    1.76e+00    0    1.24e+00
2007 02 11  2330    54142   84600      0    1.78e+00    0    1.26e+00
2007 02 11  2335    54142   84900      0    1.72e+00    0    1.20e+00
2007 02 11  2340    54142   85200      0    1.79e+00    0    1.25e+00
2007 02 11  2345    54142   85500      0    1.76e+00    0    1.23e+00
2007 02 11  2350    54142   85800      0    1.75e+00    0    1.22e+00
2007 02 11  2355    54142   86100      0    1.76e+00    0    1.22e+00
